Folder: Microstructure_-_FaradaicEfficiency_Electrodeposited_Iron_JECS (part 2)

File: 2h_200mAcm2_cleanNaOH_all _j_2025-10-28b_08_LSV_C01_noheader.txt
mode	ox/red	error	control changes	time/s	control/V	Ewe/V	<I>/mA	(Q-Qo)/C	I Range	P/W
2	0	0	0	437.88	-1.25984	-1.25538	-426.508	-0.00238845	37	0.535431
2	0	0	1	437.899	-1.25801	-1.25953	-646.96	-0.0143622	37	0.814865
2	0	0	1	437.932	-1.25467	-1.25665	-620.532	-0.0354827	37	0.779791
2	0	0	1	437.965	-1.25135	-1.25172	-602.218	-0.0557549	37	0.75381
2	0	0	1	437.999	-1.24801	-1.24791	-584.342	-0.0755463	37	0.729209
2	0	0	1	438.032	-1.24467	-1.24501	-567.039	-0.0947501	37	0.705967
2	0	0	1	438.065	-1.24135	-1.24318	-549.834	-0.113267	37	0.683544
2	0	0	1	438.099	-1.23801	-1.23839	-532.996	-0.131327	37	0.660058
2	0	0	1	438.132	-1.23467	-1.23644	-516.589	-0.148832	37	0.63873
2	0	0	1	438.165	-1.23135	-1.23084	-500.752	-0.165698	37	0.616346
2	0	0	1	438.199	-1.22801	-1.22705	-485.413	-0.182145	37	0.595624
2	0	0	1	438.232	-1.22467	-1.22451	-470.238	-0.198082	37	0.575809
2	0	0	1	438.265	-1.22135	-1.22186	-455.931	-0.213435	37	0.557082
2	0	0	1	438.299	-1.21801	-1.21873	-441.955	-0.228409	37	0.538623
2	0	0	1	438.332	-1.21466	-1.21523	-428.502	-0.242925	37	0.520728
2	0	0	1	438.365	-1.21134	-1.2122	-415.504	-0.256916	37	0.503674
2	0	0	1	438.399	-1.208	-1.20958	-402.981	-0.270566	37	0.487439
2	0	0	1	438.432	-1.20466	-1.20477	-390.671	-0.283801	37	0.47067
2	0	0	1	438.466	-1.20133	-1.20318	-378.526	-0.296627	37	0.455433
2	0	0	1	438.499	-1.19801	-1.19935	-366.659	-0.308979	37	0.439752
2	0	0	1	438.532	-1.19467	-1.19643	-355.023	-0.321012	37	0.424759
2	0	0	1	438.566	-1.19133	-1.19263	-343.493	-0.332659	37	0.409658
2	0	0	1	438.599	-1.18801	-1.18723	-332.202	-0.343857	37	0.394399
2	0	0	1	438.632	-1.18467	-1.18544	-321.176	-0.354751	37	0.380736
2	0	0	1	438.666	-1.18133	-1.18261	-310.35	-0.365279	37	0.367023
2	0	0	1	438.699	-1.17801	-1.18022	-299.555	-0.375386	37	0.353541
2	0	0	1	438.732	-1.17467	-1.17649	-288.777	-0.385193	37	0.339744
2	0	0	1	438.766	-1.17133	-1.17174	-278.249	-0.394645	37	0.326035
2	0	0	1	438.799	-1.16801	-1.16823	-267.892	-0.403693	37	0.31296
2	0	0	1	438.832	-1.16467	-1.16453	-257.499	-0.412449	37	0.299866
2	0	0	1	438.866	-1.16132	-1.16171	-247.321	-0.420862	37	0.287316
2	0	0	1	438.899	-1.158	-1.16053	-237.161	-0.428888	37	0.275233
2	0	0	1	438.932	-1.15466	-1.15646	-227.162	-0.436625	37	0.262705
2	0	0	1	438.966	-1.15132	-1.15105	-217.133	-0.444028	37	0.249931
2	0	0	1	438.999	-1.148	-1.14908	-207.348	-0.451078	37	0.238259
2	0	0	1	439.032	-1.14467	-1.14588	-197.746	-0.457807	37	0.226592
2	0	0	1	439.066	-1.14133	-1.14298	-188.193	-0.464235	37	0.215101
2	0	0	1	439.099	-1.13799	-1.13831	-178.772	-0.470346	37	0.203497
2	0	0	1	439.132	-1.13467	-1.13589	-169.539	-0.476111	37	0.192577
2	0	0	1	439.166	-1.13133	-1.13075	-160.352	-0.481604	37	0.181318
2	0	0	1	439.199	-1.12799	-1.12808	-151.358	-0.486794	37	0.170743
2	0	0	1	439.232	-1.12467	-1.12565	-142.523	-0.491656	37	0.160432
2	0	0	1	439.266	-1.12133	-1.12211	-133.785	-0.496254	37	0.150123
2	0	0	1	439.299	-1.11799	-1.11968	-125.125	-0.500561	37	0.1401
2	0	0	1	439.332	-1.11467	-1.11463	-116.694	-0.504559	37	0.13007
2	0	0	1	439.366	-1.11133	-1.11267	-108.303	-0.508301	37	0.120505
2	0	0	1	439.399	-1.10798	-1.10917	-100.121	-0.511766	37	0.111051
2	0	0	1	439.432	-1.10466	-1.10599	-92.0845	-0.514941	37	0.101845
2	0	0	1	439.466	-1.10132	-1.10383	-84.089	-0.517867	37	0.0928202
2	0	0	1	439.499	-1.09798	-1.09888	-76.2394	-0.520529	37	0.0837783
2	0	0	1	439.532	-1.09466	-1.09569	-68.5203	-0.522917	37	0.075077
2	0	0	1	439.566	-1.09133	-1.09124	-60.9257	-0.525064	37	0.0664848
2	0	0	1	439.599	-1.08799	-1.08736	-53.4686	-0.526959	37	0.0581398
2	0	0	1	439.632	-1.08465	-1.08506	-46.0665	-0.528607	37	0.049985
2	0	0	1	439.681	-1.07983	-1.07987	-35.6667	-0.530544	37	0.0385155
2	0	0	1	439.729	-1.07499	-1.0754	-25.1795	-0.532131	38	0.027078
2	0	0	1	439.762	-1.07165	-1.07449	-18.164	-0.532841	38	0.0195171
2	0	0	1	439.796	-1.06833	-1.06675	-11.1926	-0.533315	38	0.0119397
2	0	0	1	439.829	-1.06499	-1.06839	-4.30327	-0.533559	38	0.00459755
2	0	0	1	439.862	-1.06165	-1.06224	2.49275	-0.533576	38	-0.00264788
2	1	0	1	439.896	-1.05833	-1.05859	9.14992	-0.53337	38	-0.00968602
2	1	0	1	439.929	-1.05499	-1.0558	15.7966	-0.53294	38	-0.0166781
2	1	0	1	439.962	-1.05164	-1.05124	22.374	-0.532289	38	-0.0235205
2	1	0	1	439.996	-1.04832	-1.05052	28.8477	-0.531426	38	-0.0303051
2	1	0	1	440.029	-1.04498	-1.04611	35.2473	-0.530342	38	-0.0368725
2	1	0	1	440.062	-1.04164	-1.04201	41.6852	-0.529045	38	-0.0434363
2	1	0	1	440.096	-1.03832	-1.03877	48.0788	-0.527537	38	-0.049943
2	1	0	1	440.129	-1.03499	-1.03607	54.503	-0.525816	38	-0.0564691
2	1	0	1	440.162	-1.03165	-1.03214	60.9214	-0.523875	38	-0.0628793
2	1	0	1	440.196	-1.02831	-1.02897	67.3487	-0.52172	38	-0.0693001
2	1	0	1	440.229	-1.02499	-1.02464	73.8295	-0.519364	38	-0.0756489
2	1	0	1	440.262	-1.02165	-1.02274	80.3569	-0.516776	38	-0.0821842
2	1	0	1	440.296	-1.01831	-1.01948	87.1187	-0.513966	38	-0.0888161
2	1	0	1	440.329	-1.01499	-1.0157	94.0376	-0.510945	38	-0.0955143
2	1	0	1	440.362	-1.01165	-1.01292	101.17	-0.507671	38	-0.102477
2	1	0	1	440.411	-1.00681	-1.00657	111.348	-0.502479	38	-0.112079
2	1	0	1	440.459	-1.00199	-1.00338	120.873	-0.496971	37	-0.121282
2	1	0	1	440.492	-0.998645	-0.998537	127.111	-0.492815	37	-0.126925
2	1	0	1	440.526	-0.995305	-0.994104	132.498	-0.488467	37	-0.131717
2	1	0	1	440.559	-0.991984	-0.992225	135.64	-0.484005	37	-0.134585
2	1	0	1	440.592	-0.988644	-0.988734	134.802	-0.479492	37	-0.133283
2	1	0	1	440.626	-0.985304	-0.985421	149.604	-0.474722	37	-0.147423
2	1	0	1	440.659	-0.981976	-0.981923	160.281	-0.469541	37	-0.157383
2	1	0	1	440.692	-0.978649	-0.979297	168.132	-0.464057	37	-0.164651
2	1	0	1	440.726	-0.975309	-0.974864	175.282	-0.458307	37	-0.170876
2	1	0	1	440.759	-0.971969	-0.972079	182.494	-0.452317	37	-0.177398
2	1	0	1	440.792	-0.968648	-0.967926	189.823	-0.446123	37	-0.183734
2	1	0	1	440.826	-0.965308	-0.965473	197.49	-0.43964	37	-0.190672
2	1	0	1	440.859	-0.961967	-0.962243	205.074	-0.432903	37	-0.197331
2	1	0	1	440.892	-0.958647	-0.960053	212.623	-0.425954	37	-0.20413
2	1	0	1	440.926	-0.955307	-0.95496	220.215	-0.418711	37	-0.210296
2	1	0	1	440.959	-0.951966	-0.950835	227.751	-0.411215	37	-0.216554
2	1	0	1	440.977	-0.950139	-0.950695	231.597	-0.407051	37	-0.220178

File: 2h_200mAcm2_cleanNaOH_all _j_2025-10-28b_12_LSV_C01_noheader.txt
mode	ox/red	error	control changes	time/s	control/V	Ewe/V	<I>/mA	(Q-Qo)/C	I Range	P/W
2	0	0	0	711.791	-1.25984	-1.26348	-498.875	-0.0027937	37	0.630316
2	0	0	1	711.81	-1.25801	-1.25943	-741.601	-0.0165771	37	0.933991
2	0	0	1	711.843	-1.25467	-1.25565	-686.276	-0.0403336	37	0.861725
2	0	0	1	711.876	-1.25135	-1.25108	-656.095	-0.0625744	37	0.82083
2	0	0	1	711.91	-1.24801	-1.24897	-633.425	-0.0840772	37	0.791131
2	0	0	1	711.943	-1.24467	-1.24532	-614.282	-0.104886	37	0.764978
2	0	0	1	711.976	-1.24135	-1.24168	-596.905	-0.124967	37	0.741162
2	0	0	1	712.01	-1.23801	-1.23767	-580.464	-0.144605	37	0.718425
2	0	0	1	712.043	-1.23467	-1.23571	-564.595	-0.163704	37	0.697676
2	0	0	1	712.076	-1.23135	-1.23363	-549.38	-0.182173	37	0.677732
2	0	0	1	712.11	-1.22801	-1.23008	-534.519	-0.200252	37	0.657502
2	0	0	1	712.143	-1.22467	-1.22578	-519.982	-0.217839	37	0.637384
2	0	0	1	712.176	-1.22135	-1.22272	-505.863	-0.234846	37	0.618528
2	0	0	1	712.21	-1.21801	-1.21965	-491.974	-0.251488	37	0.600035
2	0	0	1	712.243	-1.21466	-1.21469	-478.371	-0.267672	37	0.581072
2	0	0	1	712.276	-1.21134	-1.21214	-464.995	-0.28331	37	0.563639
2	0	0	1	712.31	-1.208	-1.20819	-451.943	-0.298602	37	0.546032
2	0	0	1	712.343	-1.20466	-1.2065	-438.823	-0.313458	37	0.529441
2	0	0	1	712.376	-1.20133	-1.20273	-426.094	-0.327882	37	0.512477
2	0	0	1	712.41	-1.19801	-1.19906	-413.624	-0.3418	37	0.495961
2	0	0	1	712.443	-1.19467	-1.19649	-401.335	-0.355389	37	0.480191
2	0	0	1	712.476	-1.19133	-1.19107	-389.321	-0.368574	37	0.463709
2	0	0	1	712.51	-1.18801	-1.18858	-377.491	-0.381283	37	0.448677
2	0	0	1	712.543	-1.18467	-1.18522	-365.906	-0.393677	37	0.433678
2	0	0	1	712.576	-1.18133	-1.18211	-354.341	-0.405686	37	0.41887
2	0	0	1	712.61	-1.17801	-1.17856	-343.037	-0.417243	37	0.404289
2	0	0	1	712.643	-1.17467	-1.17571	-331.841	-0.428494	37	0.390149
2	0	0	1	712.676	-1.17133	-1.17158	-320.881	-0.439375	37	0.375937
2	0	0	1	712.71	-1.16801	-1.16823	-310.018	-0.44983	37	0.362172
2	0	0	1	712.743	-1.16467	-1.16507	-299.227	-0.459985	37	0.348622
2	0	0	1	712.776	-1.16132	-1.16045	-288.649	-0.469784	37	0.334962
2	0	0	1	712.81	-1.158	-1.15957	-278.326	-0.479178	37	0.322737
2	0	0	1	712.843	-1.15466	-1.15548	-268	-0.488283	37	0.309669
2	0	0	1	712.876	-1.15132	-1.15135	-257.646	-0.497043	37	0.296641
2	0	0	1	712.91	-1.148	-1.14917	-247.677	-0.505438	37	0.284623
2	0	0	1	712.943	-1.14467	-1.14364	-237.744	-0.513503	37	0.271893
2	0	0	1	712.976	-1.14133	-1.14092	-227.994	-0.521263	37	0.260123
2	0	0	1	713.01	-1.13799	-1.13896	-218.229	-0.528697	37	0.248554
2	0	0	1	713.043	-1.13467	-1.13405	-208.642	-0.535765	37	0.236611
2	0	0	1	713.076	-1.13133	-1.13291	-199.178	-0.542558	37	0.225652
2	0	0	1	713.11	-1.12799	-1.12719	-189.683	-0.549034	37	0.213808
2	0	0	1	713.143	-1.12467	-1.12529	-180.39	-0.55516	37	0.202991
2	0	0	1	713.176	-1.12133	-1.12252	-171.168	-0.561013	37	0.19214
2	0	0	1	713.21	-1.11799	-1.11843	-161.993	-0.56656	37	0.181177
2	0	0	1	713.243	-1.11467	-1.11567	-152.972	-0.571771	37	0.170666
2	0	0	1	713.276	-1.11133	-1.11207	-143.983	-0.576713	37	0.16012
2	0	0	1	713.31	-1.10798	-1.10809	-135.112	-0.581357	37	0.149716
2	0	0	1	713.343	-1.10466	-1.10397	-126.345	-0.58568	37	0.139481
2	0	0	1	713.376	-1.10132	-1.10155	-117.654	-0.589738	37	0.129602
2	0	0	1	713.41	-1.09798	-1.09874	-109.015	-0.593507	37	0.119779
2	0	0	1	713.443	-1.09466	-1.09458	-100.594	-0.59697	37	0.110108
2	0	0	1	713.476	-1.09133	-1.09309	-92.074	-0.60017	37	0.100645
2	0	0	1	713.51	-1.08799	-1.08795	-83.7595	-0.60309	37	0.0911263
2	0	0	1	713.543	-1.08465	-1.08468	-75.4483	-0.605732	37	0.0818374
2	0	0	1	713.576	-1.08133	-1.08142	-67.2668	-0.608085	37	0.072744
2	0	0	1	713.61	-1.07799	-1.0785	-59.0977	-0.610179	37	0.0637372
2	0	0	1	713.643	-1.07465	-1.0753	-51.0184	-0.612002	37	0.0548601
2	0	0	1	713.676	-1.07133	-1.07208	-43.1055	-0.613547	37	0.0462124
2	0	0	1	713.74	-1.06499	-1.06384	-27.9974	-0.615912	38	0.0297846
2	0	0	1	713.773	-1.06165	-1.06274	-20.2317	-0.616701	38	0.0215011
2	0	0	1	713.806	-1.05833	-1.05702	-12.5606	-0.61723	38	0.0132768
2	0	0	1	713.84	-1.05499	-1.05391	-5.00072	-0.617507	38	0.00527032
2	0	0	1	713.873	-1.05164	-1.05211	2.50677	-0.617533	38	-0.0026374
2	1	0	1	713.906	-1.04832	-1.05003	9.87948	-0.617312	38	-0.0103738
2	1	0	1	713.94	-1.04498	-1.04488	17.0889	-0.616846	38	-0.0178558
2	1	0	1	713.973	-1.04164	-1.04208	24.3173	-0.616139	38	-0.0253407
2	1	0	1	714.006	-1.03832	-1.03886	31.4273	-0.615196	38	-0.0326487
2	1	0	1	714.04	-1.03499	-1.0356	38.4196	-0.614018	38	-0.0397872
2	1	0	1	714.073	-1.03165	-1.03281	45.3782	-0.612603	38	-0.0468672
2	1	0	1	714.107	-1.02831	-1.02882	52.3874	-0.610955	38	-0.0538971
2	1	0	1	714.14	-1.02499	-1.02602	59.4635	-0.609083	38	-0.0610107
2	1	0	1	714.173	-1.02165	-1.02327	66.6208	-0.606962	38	-0.068171
2	1	0	1	714.207	-1.01831	-1.01958	74.0603	-0.604597	38	-0.0755106
2	1	0	1	714.24	-1.01499	-1.01476	81.4052	-0.602001	38	-0.0826067
2	1	0	1	714.273	-1.01165	-1.01219	88.6986	-0.599145	38	-0.0897798
2	1	0	1	714.307	-1.00831	-1.00914	96.0096	-0.596045	38	-0.096887
2	1	0	1	714.34	-1.00499	-1.00429	103.429	-0.592719	38	-0.103872
2	1	0	1	714.388	-1.00015	-1.00116	113.948	-0.587405	38	-0.11408
2	1	0	1	714.437	-0.995305	-0.994721	124.298	-0.581732	37	-0.123642
2	1	0	1	714.47	-0.991984	-0.993901	130.464	-0.57749	37	-0.129669
2	1	0	1	714.503	-0.988644	-0.98875	135.779	-0.573029	37	-0.134252
2	1	0	1	714.537	-0.985304	-0.985048	137.234	-0.568456	37	-0.135182
2	1	0	1	714.57	-0.981976	-0.982596	139.581	-0.563851	37	-0.137151
2	1	0	1	714.603	-0.978649	-0.979313	156.039	-0.558905	37	-0.152812
2	1	0	1	714.637	-0.975309	-0.977334	166.178	-0.553504	37	-0.162411
2	1	0	1	714.67	-0.971969	-0.97294	173.703	-0.547811	37	-0.169002
2	1	0	1	714.703	-0.968648	-0.967818	180.286	-0.54192	37	-0.174484
2	1	0	1	714.737	-0.965308	-0.965896	186.566	-0.535781	37	-0.180203
2	1	0	1	714.77	-0.961967	-0.961441	192.82	-0.529431	37	-0.185385
2	1	0	1	714.803	-0.958647	-0.958231	198.989	-0.522914	37	-0.190677
2	1	0	1	714.837	-0.955307	-0.955996	204.914	-0.516155	37	-0.195897
2	1	0	1	714.87	-0.951966	-0.952506	210.53	-0.509205	37	-0.200531
2	1	0	1	714.888	-0.950139	-0.949927	213.59	-0.505357	37	-0.202895

File: TS-82-25-02-30-100_2024-07-23_clean_NaOH_04_LSV_C01.txt
mode	ox/red	error	control changes	time/s	control/V	Ewe/V	<I>/mA	(Q-Qo)/C	I Range	<Ece>/V	P/W	Ewe-Ece/V
2	0	0	1	123.591	-1.2846	-1.27856	-196.886	-0.00700508	37	0.656263	0.25173	-1.93482
2	0	0	1	125.108	-1.26943	-1.27293	-178.62	-0.29143	37	0.648269	0.22737	-1.9212
2	0	0	1	126.775	-1.25276	-1.25301	-159.591	-0.572749	37	0.640721	0.199969	-1.89373
2	0	0	1	128.442	-1.23609	-1.23505	-141.867	-0.823421	37	0.633747	0.175213	-1.8688
2	0	0	1	130.109	-1.21943	-1.21879	-125.285	-1.04554	37	0.625637	0.152696	-1.84442
2	0	0	1	131.775	-1.20276	-1.20217	-109.841	-1.24104	37	0.61801	0.132047	-1.82018
2	0	0	1	133.442	-1.18609	-1.18529	-95.2168	-1.4114	37	0.610825	0.11286	-1.79612
2	0	0	1	135.109	-1.16942	-1.17278	-81.4568	-1.55823	37	0.603811	0.095531	-1.77659
2	0	0	1	136.776	-1.15275	-1.15503	-68.4508	-1.68276	37	0.595613	0.0790626	-1.75064
2	0	0	1	138.443	-1.13608	-1.13546	-56.3968	-1.78639	37	0.588172	0.0640364	-1.72363
2	0	0	1	140.126	-1.11925	-1.12071	-45.0724	-1.87141	37	0.579404	0.0505131	-1.70011
2	0	0	1	141.81	-1.10241	-1.10163	-34.9039	-1.93839	38	0.57085	0.0384513	-1.67248
2	0	0	1	143.477	-1.08574	-1.08787	-26.0912	-1.98887	38	0.562475	0.0283837	-1.65034
2	0	0	1	145.144	-1.06908	-1.06998	-18.5225	-2.02563	38	0.553546	0.0198187	-1.62353
2	0	0	1	146.811	-1.05241	-1.05917	-11.1306	-2.05009	38	0.54197	0.0117892	-1.60114
2	0	0	1	148.511	-1.0354	-1.03989	-2.85148	-2.06192	39	0.519064	0.00296522	-1.55895
2	1	0	1	150.178	-1.01874	-1.01837	8.1556	-2.0573	39	0.406668	-0.00830543	-1.42504
2	1	0	1	151.844	-1.00207	-1.00609	7.01522	-2.04255	39	0.326608	-0.00705792	-1.3327
2	1	0	1	153.511	-0.985399	-0.985065	6.54261	-2.03147	39	0.296652	-0.0064449	-1.28172
2	1	0	1	155.178	-0.968731	-0.968364	8.40584	-2.01896	39	0.259336	-0.00813991	-1.2277
2	1	0	1	156.878	-0.951729	-0.952778	12.0603	-2.00135	38	0.161805	-0.0114908	-1.11458
2	0	0	1	251.682	-1.27777	-1.27926	-194.339	-0.176774	37	0.647763	0.248611	-1.92703
2	0	0	1	253.349	-1.2611	-1.2612	-174.05	-0.483336	37	0.639976	0.219512	-1.90118
2	0	0	1	255.016	-1.24443	-1.24576	-155.237	-0.757249	37	0.632517	0.193388	-1.87828
2	0	0	1	256.682	-1.22776	-1.22647	-137.13	-1.00043	37	0.625059	0.168185	-1.85153
2	0	0	1	258.349	-1.21109	-1.20959	-120.458	-1.21466	37	0.618126	0.145705	-1.82771
2	0	0	1	260.016	-1.19442	-1.19411	-104.671	-1.40195	37	0.610668	0.124988	-1.80477
2	0	0	1	261.683	-1.17776	-1.1779	-89.8004	-1.56364	37	0.603075	0.105776	-1.78098
2	0	0	1	263.35	-1.16109	-1.1659	-75.7586	-1.70128	37	0.595265	0.0883267	-1.76116
2	0	0	1	265.017	-1.14442	-1.1477	-62.4384	-1.81601	37	0.587135	0.0716602	-1.73483
2	0	0	1	266.684	-1.12775	-1.13107	-49.9322	-1.90918	37	0.578996	0.0564768	-1.71006
2	0	0	1	268.384	-1.11075	-1.10889	-38.3655	-1.98378	38	0.570215	0.042543	-1.6791
2	0	0	1	270.051	-1.09408	-1.09111	-28.392	-2.03897	38	0.560748	0.0309788	-1.65186
2	0	0	1	271.718	-1.07741	-1.08116	-19.6955	-2.07855	38	0.550722	0.021294	-1.63189
2	0	0	1	273.384	-1.06074	-1.06149	-11.9838	-2.10459	38	0.539221	0.0127207	-1.60071
2	0	0	1	275.068	-1.04391	-1.03794	-4.49715	-2.11808	38	0.520645	0.00466776	-1.55858
2	1	0	1	276.751	-1.02707	-1.03113	5.05609	-2.11801	39	0.44873	-0.00521348	-1.47986
2	1	0	1	278.452	-1.01007	-1.00972	11.0466	-2.10067	38	0.315159	-0.011154	-1.32488
2	1	0	1	280.119	-0.9934	-0.994099	6.58616	-2.08713	38	0.285823	-0.00654729	-1.27992
2	1	0	1	281.785	-0.976732	-0.978758	7.56852	-2.07536	38	0.260275	-0.00740774	-1.23903
2	1	0	1	283.452	-0.960064	-0.962203	10.5765	-2.06022	38	0.1827	-0.0101768	-1.1449
2	0	0	0	379.106	-1.27193	-1.27285	-196.295	-0.00698967	37	0.644434	0.249854	-1.91728
2	0	0	1	380.623	-1.25676	-1.25829	-178.212	-0.290775	37	0.638282	0.224242	-1.89657
2	0	0	1	382.29	-1.24009	-1.23881	-158.947	-0.57137	37	0.630797	0.196905	-1.86961
2	0	0	1	383.957	-1.22343	-1.2235	-140.614	-0.820574	37	0.623254	0.172041	-1.84676
2	0	0	1	385.623	-1.20676	-1.20636	-123.401	-1.04013	37	0.615626	0.148866	-1.82198
2	0	0	1	387.29	-1.19009	-1.1909	-106.81	-1.23153	37	0.60776	0.1272	-1.79866
2	0	0	1	388.957	-1.17342	-1.17484	-91.0546	-1.39601	37	0.600059	0.106975	-1.7749
2	0	0	1	390.624	-1.15675	-1.15931	-75.9619	-1.53475	37	0.592262	0.0880635	-1.75157
2	0	0	1	392.291	-1.14008	-1.14031	-61.7531	-1.64895	37	0.583689	0.0704178	-1.724
2	0	0	1	393.958	-1.12341	-1.12447	-48.5443	-1.74028	37	0.574677	0.0545864	-1.69914
2	0	0	1	395.658	-1.10641	-1.1084	-36.433	-1.81189	38	0.564889	0.0403822	-1.67329
2	0	0	1	397.325	-1.08974	-1.08978	-25.8411	-1.86316	38	0.554821	0.028161	-1.6446
2	0	0	1	398.992	-1.07308	-1.07287	-16.8203	-1.89812	38	0.543762	0.018046	-1.61663
2	0	0	1	400.658	-1.05641	-1.0571	-8.67434	-1.91885	38	0.530194	0.00916961	-1.58729
2	0	0	1	402.359	-1.03941	-1.04097	-1.18803	-1.9269	39	0.504091	0.0012367	-1.54506
2	1	0	1	404.042	-1.02257	-1.02264	9.83109	-1.91994	39	0.390628	-0.0100536	-1.41327
2	1	0	1	405.726	-1.00573	-1.00274	9.34108	-1.89966	38	0.295909	-0.00936667	-1.29865
2	1	0	1	407.393	-0.989066	-0.98963	7.01094	-1.88673	38	0.276241	-0.00693823	-1.26587
2	1	0	1	409.059	-0.972399	-0.969541	8.5578	-1.87375	38	0.251202	-0.00829714	-1.22074
2	1	0	1	410.726	-0.955729	-0.955921	11.9759	-1.85655	38	-0.166909	-0.0114481	-0.789012
2	0	0	1	505.663	-1.26877	-1.26914	-200.631	-0.0440773	37	0.642089	0.254629	-1.91123
2	0	0	1	507.33	-1.2521	-1.25263	-180.583	-0.36118	37	0.634934	0.226203	-1.88756
2	0	0	1	508.997	-1.23543	-1.23671	-161.41	-0.645554	37	0.627896	0.199617	-1.8646
2	0	0	1	510.664	-1.21876	-1.21901	-143.005	-0.898611	37	0.621004	0.174324	-1.84001
2	0	0	1	512.331	-1.20209	-1.20249	-125.392	-1.12167	37	0.612897	0.150782	-1.81538
2	0	0	1	513.997	-1.18542	-1.1866	-108.306	-1.31583	37	0.605005	0.128517	-1.79161
2	0	0	1	515.664	-1.16875	-1.1692	-91.7998	-1.482	37	0.597373	0.107332	-1.76657
2	0	0	1	517.331	-1.15209	-1.15192	-76.0844	-1.62136	37	0.588518	0.0876427	-1.74043
2	0	0	1	518.998	-1.13542	-1.138	-61.1537	-1.73519	37	0.580444	0.0695932	-1.71845
2	0	0	1	520.665	-1.11875	-1.12014	-47.5395	-1.82527	37	0.570645	0.0532511	-1.69079
2	0	0	1	522.365	-1.10175	-1.09839	-34.951	-1.89485	38	0.560846	0.0383899	-1.65924
2	0	0	1	524.032	-1.08508	-1.08543	-24.103	-1.94354	38	0.550065	0.026162	-1.63549
2	0	0	1	525.699	-1.06841	-1.06831	-14.7311	-1.97544	38	0.538264	0.0157375	-1.60658
2	0	0	1	527.366	-1.05174	-1.05263	-6.57427	-1.99268	38	0.522285	0.00692028	-1.57492
2	1	0	1	529.066	-1.03474	-1.03566	1.45817	-1.99713	39	0.482971	-0.00151016	-1.51863
2	1	0	1	530.733	-1.01807	-1.01909	13.1728	-1.98455	38	0.34134	-0.0134242	-1.36043
2	1	0	1	532.4	-1.0014	-1.00136	7.73935	-1.96593	38	0.29002	-0.00774987	-1.29138
2	1	0	1	534.066	-0.984733	-0.984812	7.06802	-1.95393	38	0.272951	-0.00696067	-1.25776
2	1	0	1	535.733	-0.968064	-0.967872	9.29401	-1.94028	38	0.246073	-0.00899541	-1.21394
2	1	0	1	537.383	-0.951562	-0.948896	13.054	-1.92178	38	-0.763129	-0.0123869	-0.185766
2	0	0	1	632.537	-1.25676	-1.25898	-195.331	-0.177701	37	0.639938	0.245917	-1.89891
2	0	0	1	634.204	-1.2401	-1.24077	-175.519	-0.486268	37	0.633046	0.217778	-1.87381
2	0	0	1	635.871	-1.22343	-1.22298	-156.099	-0.762139	37	0.625212	0.190906	-1.84819
2	0	0	1	637.538	-1.20676	-1.20695	-137.486	-1.00644	37	0.617148	0.16594	-1.8241
2	0	0	1	639.205	-1.19009	-1.1913	-119.393	-1.22012	37	0.609616	0.142233	-1.80092
2	0	0	1	640.872	-1.17342	-1.17367	-101.904	-1.40415	37	0.601324	0.119603	-1.775
2	0	0	1	642.538	-1.15675	-1.1588	-84.913	-1.55945	37	0.592672	0.098397	-1.75147
2	0	0	1	644.205	-1.14008	-1.13866	-68.954	-1.68717	37	0.583992	0.0785148	-1.72265
2	0	0	1	645.872	-1.12342	-1.12064	-54.057	-1.78919	37	0.574254	0.0605784	-1.69489
2	0	0	1	647.572	-1.10641	-1.10495	-40.2981	-1.86883	38	0.564394	0.0445273	-1.66934
2	0	0	1	649.239	-1.08975	-1.09107	-28.2034	-1.92532	38	0.553148	0.0307718	-1.64421
2	0	0	1	650.906	-1.07308	-1.0732	-17.6554	-1.96293	38	0.541186	0.0189478	-1.61439
2	0	0	1	652.573	-1.05641	-1.05698	-8.67724	-1.98422	38	0.526286	0.00917167	-1.58327
2	0	0	1	654.273	-1.0394	-1.04031	-0.946857	-1.99212	39	0.49986	0.000985024	-1.54017
2	1	0	1	655.957	-1.02257	-1.02249	10.7793	-1.98417	39	0.38085	-0.0110217	-1.40334
2	1	0	1	657.64	-1.00574	-1.00698	9.16173	-1.96345	38	0.294451	-0.00922566	-1.30143
2	1	0	1	659.307	-0.989067	-0.98959	6.95193	-1.95065	38	0.278992	-0.00687956	-1.26858
2	1	0	1	660.974	-0.972397	-0.972709	8.61576	-1.93762	38	0.259442	-0.00838063	-1.23215
2	1	0	1	662.641	-0.955729	-0.956147	11.6833	-1.92039	38	0.00389477	-0.0111709	-0.960042
2	0	0	1	757.411	-1.26176	-1.26266	-207.59	-0.045652	37	0.641779	0.262116	-1.90444
2	0	0	1	759.078	-1.2451	-1.24388	-187.148	-0.374005	37	0.634527	0.23279	-1.87841
2	0	0	1	760.745	-1.22843	-1.22897	-167.377	-0.668908	37	0.627516	0.205701	-1.85648
2	0	0	1	762.412	-1.21176	-1.21071	-148.219	-0.931551	37	0.619478	0.17945	-1.83019
2	0	0	1	764.079	-1.19509	-1.19626	-129.48	-1.1624	37	0.6121	0.154892	-1.80836
2	0	0	1	765.745	-1.17842	-1.18087	-111.286	-1.36253	37	0.603969	0.131414	-1.78484
2	0	0	1	767.412	-1.16175	-1.16231	-93.6975	-1.53296	37	0.595817	0.108906	-1.75813
2	0	0	1	769.079	-1.14508	-1.14408	-76.8389	-1.67464	37	0.586544	0.0879098	-1.73062
2	0	0	1	770.746	-1.12842	-1.12864	-60.8111	-1.78882	37	0.577126	0.0686336	-1.70576
2	0	0	1	772.413	-1.11175	-1.11234	-46.0656	-1.87737	37	0.567302	0.0512408	-1.67965
2	0	0	1	774.113	-1.09475	-1.09458	-32.531	-1.94361	38	0.556067	0.0356076	-1.65064
2	0	0	1	775.78	-1.07808	-1.07668	-21.0441	-1.98773	38	0.544499	0.0226577	-1.62118
2	0	0	1	777.447	-1.06141	-1.06395	-11.1156	-2.01405	38	0.530205	0.0118264	-1.59415
2	0	0	1	779.147	-1.04441	-1.04264	-3.07143	-2.02561	39	0.509334	0.0032024	-1.55198
2	1	0	1	780.814	-1.02774	-1.02978	7.07017	-2.02277	39	0.426851	-0.00728073	-1.45663
2	1	0	1	782.481	-1.01107	-1.0113	12.7327	-2.00235	38	0.299907	-0.0128765	-1.3112
2	1	0	1	784.148	-0.9944	-0.994865	7.22073	-1.98709	38	0.282601	-0.00718365	-1.27747
2	1	0	1	785.814	-0.977732	-0.977925	7.9321	-1.97458	38	0.265996	-0.007757	-1.24392
2	1	0	1	787.481	-0.961063	-0.961758	10.6091	-1.95896	38	0.212124	-0.0102034	-1.17388
2	1	0	0	788.571	-0.949895	-0.943144	13.5913	-1.94606	38	-0.78633	-0.0128185	-0.156814