Folder: Microstructure_-_FaradaicEfficiency_Electrodeposited_Iron_JECS (part 5)

File: TS-82-25-02-360-100_2024-07-30_clean_NaOH_04_LSV_C01.txt
mode	ox/red	error	control changes	time/s	control/V	Ewe/V	<I>/mA	(Q-Qo)/C	I Range	<Ece>/V	P/W	Ewe-Ece/V
2	0	0	0	123.467	-1.22462	-1.22513	-201.262	-0.00716344	37	0.646035	0.246572	-1.87117
2	0	0	1	124.651	-1.21278	-1.21275	-185.678	-0.235246	37	0.640245	0.225181	-1.85299
2	0	0	1	125.984	-1.19945	-1.20058	-169.424	-0.471566	37	0.634403	0.203406	-1.83498
2	0	0	1	127.318	-1.18611	-1.18778	-153.492	-0.686352	37	0.628215	0.182314	-1.816
2	0	0	1	128.651	-1.17278	-1.17457	-138.223	-0.880363	37	0.621953	0.162353	-1.79653
2	0	0	1	129.985	-1.15944	-1.16031	-123.154	-1.05416	37	0.615705	0.142897	-1.77601
2	0	0	1	131.318	-1.14611	-1.14714	-108.646	-1.20829	37	0.609151	0.124632	-1.75629
2	0	0	1	132.652	-1.13277	-1.13318	-94.5599	-1.34337	37	0.602172	0.107153	-1.73535
2	0	0	1	133.985	-1.11944	-1.12004	-81.011	-1.46001	37	0.595318	0.0907357	-1.71536
2	0	0	1	135.319	-1.1061	-1.10645	-68.0894	-1.55905	37	0.588488	0.0753376	-1.69494
2	0	0	1	136.652	-1.09277	-1.09344	-55.8326	-1.64123	37	0.580799	0.0610497	-1.67424
2	0	0	1	138.002	-1.07927	-1.07933	-44.0426	-1.70819	37	0.573167	0.0475364	-1.65249
2	0	0	1	139.352	-1.06577	-1.06662	-32.55	-1.75953	38	0.563794	0.0347183	-1.63041
2	0	0	1	140.686	-1.05243	-1.05214	-21.5111	-1.79521	38	0.55308	0.0226327	-1.60522
2	0	0	1	142.019	-1.0391	-1.03862	-10.1106	-1.81604	38	0.536963	0.0105011	-1.57559
2	1	0	1	143.386	-1.02543	-1.02526	2.77604	-1.82076	39	0.48758	-0.00284615	-1.51284
2	1	0	1	144.753	-1.01176	-1.01195	14.4233	-1.80833	38	0.361968	-0.0145956	-1.37392
2	1	0	1	146.086	-0.998425	-0.999034	22.2232	-1.78344	38	0.270539	-0.0222017	-1.26957
2	1	0	1	147.42	-0.98509	-0.985782	28.4762	-1.74898	38	-1.00204	-0.0280713	0.0162565
2	1	0	1	148.753	-0.971756	-0.971976	36.6218	-1.70506	38	-1.14356	-0.0355955	0.17158
2	1	0	1	150.087	-0.95842	-0.958865	41.2428	-1.65261	38	-1.13398	-0.0395463	0.175111
2	0	0	0	240.874	-1.22062	-1.22108	-200.875	-0.00715209	37	0.639589	0.245285	-1.86067
2	0	0	1	242.057	-1.20878	-1.20895	-184.671	-0.234482	37	0.633092	0.223258	-1.84204
2	0	0	1	243.391	-1.19545	-1.19615	-167.939	-0.469257	37	0.627104	0.200879	-1.82325
2	0	0	1	244.724	-1.18211	-1.18233	-151.679	-0.682013	37	0.621135	0.179334	-1.80346
2	0	0	1	246.058	-1.16878	-1.16885	-135.715	-0.873252	37	0.614498	0.15863	-1.78334
2	0	0	1	247.391	-1.15544	-1.15428	-120.089	-1.04339	37	0.608515	0.138616	-1.76279
2	0	0	1	248.725	-1.14211	-1.14218	-104.837	-1.19293	37	0.601438	0.119743	-1.74362
2	0	0	1	250.058	-1.12877	-1.12927	-90.4079	-1.32273	37	0.594748	0.102095	-1.72402
2	0	0	1	251.392	-1.11544	-1.11508	-76.4452	-1.43368	37	0.588174	0.0852423	-1.70325
2	0	0	1	252.725	-1.1021	-1.10222	-62.5405	-1.52603	37	0.579527	0.0689336	-1.68175
2	0	0	1	254.059	-1.08877	-1.08901	-50.0357	-1.60072	37	0.571904	0.0544893	-1.66091
2	0	0	1	255.425	-1.0751	-1.07589	-37.973	-1.66052	38	0.563164	0.0408548	-1.63906
2	0	0	1	256.759	-1.06177	-1.06152	-26.5071	-1.70316	38	0.553294	0.0281377	-1.61481
2	0	0	1	258.092	-1.04843	-1.04762	-15.3804	-1.73082	38	0.540938	0.0161127	-1.58855
2	0	0	1	259.443	-1.03493	-1.03557	-3.63701	-1.74343	38	0.516912	0.0037664	-1.55249
2	1	0	1	260.793	-1.02143	-1.02152	8.9737	-1.73944	39	0.427915	-0.00916683	-1.44944
2	1	0	1	262.126	-1.00809	-1.00781	19.5551	-1.71965	38	0.316872	-0.0197078	-1.32468
2	1	0	1	263.46	-0.994757	-0.995594	26.6116	-1.68851	38	0.228667	-0.0264944	-1.22426
2	1	0	1	264.793	-0.981424	-0.984694	32.8003	-1.64929	38	-1.07124	-0.0322982	0.0865462
2	1	0	1	266.127	-0.968087	-0.965828	38.7905	-1.60103	38	-1.09346	-0.037465	0.127627
2	1	0	1	267.46	-0.954754	-0.957625	43.2656	-1.54594	38	-1.10779	-0.0414323	0.150163
2	0	0	1	358.131	-1.21512	-1.21532	-196.78	-0.0432158	37	0.633743	0.239151	-1.84906
2	0	0	1	359.464	-1.20178	-1.20235	-179.584	-0.293568	37	0.627648	0.215923	-1.83
2	0	0	1	360.798	-1.18845	-1.18919	-162.639	-0.521344	37	0.6217	0.193408	-1.81089
2	0	0	1	362.131	-1.17511	-1.17529	-146.201	-0.726752	37	0.615274	0.171829	-1.79056
2	0	0	1	363.465	-1.16178	-1.16201	-129.915	-0.910412	37	0.608955	0.150963	-1.77097
2	0	0	1	364.798	-1.14844	-1.14923	-114.134	-1.07278	37	0.602301	0.131167	-1.75153
2	0	0	1	366.131	-1.13511	-1.13658	-98.7214	-1.21428	37	0.595157	0.112205	-1.73174
2	0	0	1	367.465	-1.12177	-1.12185	-83.9866	-1.33566	37	0.588181	0.0942205	-1.71003
2	0	0	1	368.798	-1.10844	-1.10755	-69.9734	-1.43788	37	0.580652	0.0774992	-1.68821
2	0	0	1	370.132	-1.0951	-1.09536	-56.6253	-1.52181	37	0.572908	0.0620248	-1.66826
2	0	0	1	371.482	-1.0816	-1.0821	-43.9763	-1.58919	37	0.564656	0.047587	-1.64676
2	0	0	1	372.832	-1.0681	-1.06844	-31.8187	-1.63996	38	0.555202	0.0339965	-1.62365
2	0	0	1	374.166	-1.05476	-1.056	-20.334	-1.67431	38	0.543773	0.0214727	-1.59978
2	0	0	1	375.499	-1.04143	-1.04136	-8.7887	-1.69339	38	0.527003	0.00915223	-1.56837
2	1	0	1	376.866	-1.02776	-1.02898	3.96127	-1.69645	39	0.474918	-0.00407607	-1.5039
2	1	0	1	378.233	-1.01409	-1.0158	16.2262	-1.68219	38	0.349692	-0.0164825	-1.36549
2	1	0	1	379.566	-1.00076	-1.00204	23.8657	-1.65461	38	0.268741	-0.0239143	-1.27078
2	1	0	1	380.9	-0.987424	-0.987644	28.9489	-1.61852	38	-0.877524	-0.0285912	-0.110119
2	1	0	1	382.233	-0.974088	-0.97407	36.3964	-1.57422	38	-1.0783	-0.0354526	0.10423
2	1	0	1	383.567	-0.960755	-0.962478	41.1451	-1.52211	38	-1.09599	-0.0396013	0.133512
2	1	0	0	384.626	-0.949919	-0.950147	45.2325	-1.47655	38	-1.10622	-0.0429775	0.156078
2	0	0	1	475.504	-1.20511	-1.20586	-187.948	-0.171322	37	0.62827	0.226639	-1.83413
2	0	0	1	476.837	-1.19178	-1.19229	-170.161	-0.409609	37	0.622236	0.202882	-1.81453
2	0	0	1	478.171	-1.17845	-1.17878	-153.242	-0.624769	37	0.616162	0.180639	-1.79494
2	0	0	1	479.504	-1.16511	-1.165	-136.437	-0.817414	37	0.609315	0.15895	-1.77432
2	0	0	1	480.838	-1.15178	-1.15207	-120.207	-0.988003	37	0.60274	0.138487	-1.75481
2	0	0	1	482.171	-1.13844	-1.13837	-104.468	-1.13733	37	0.595488	0.118923	-1.73385
2	0	0	1	483.505	-1.12511	-1.12525	-89.3083	-1.26604	37	0.588785	0.100494	-1.71403
2	0	0	1	484.838	-1.11177	-1.11233	-75.0025	-1.37515	37	0.581529	0.0834276	-1.69386
2	0	0	1	486.172	-1.09844	-1.09894	-61.0432	-1.46538	37	0.573656	0.0670828	-1.6726
2	0	0	1	487.505	-1.0851	-1.08558	-47.9235	-1.53757	37	0.56549	0.0520246	-1.65107
2	0	0	1	488.872	-1.07143	-1.07274	-35.3443	-1.59405	38	0.556041	0.0379154	-1.62878
2	0	0	1	490.206	-1.0581	-1.05886	-23.4572	-1.63281	38	0.544958	0.0248379	-1.60382
2	0	0	1	491.539	-1.04476	-1.04543	-11.8053	-1.65593	38	0.530247	0.0123416	-1.57568
2	0	0	1	492.906	-1.03109	-1.0317	0.944099	-1.66311	39	0.493547	-0.000974022	-1.52524
2	1	0	1	494.273	-1.01743	-1.01689	13.5452	-1.65269	38	0.378912	-0.013774	-1.3958
2	1	0	1	495.606	-1.00409	-1.00527	22.1755	-1.62774	38	0.28651	-0.0222924	-1.29178
2	1	0	1	496.94	-0.990757	-0.990865	28.3003	-1.59392	38	0.195963	-0.0280418	-1.18683
2	1	0	1	498.273	-0.977423	-0.977356	34.3933	-1.55245	38	-1.06785	-0.0336145	0.0904931
2	1	0	1	499.607	-0.964088	-0.965512	39.6853	-1.50251	38	-1.08766	-0.0383167	0.122152
2	1	0	1	500.89	-0.951253	-0.953098	43.9643	-1.4486	38	-1.10028	-0.0419023	0.147177
2	0	0	1	590.544	-1.20345	-1.20383	-186.525	-0.105249	37	0.626143	0.224544	-1.82997
2	0	0	1	591.877	-1.19011	-1.18998	-168.915	-0.341671	37	0.619826	0.201005	-1.8098
2	0	0	1	593.211	-1.17678	-1.17687	-151.687	-0.555039	37	0.613529	0.178516	-1.7904
2	0	0	1	594.544	-1.16344	-1.16301	-134.994	-0.745595	37	0.607269	0.156999	-1.77028
2	0	0	1	595.877	-1.15011	-1.15083	-118.426	-0.914085	37	0.600596	0.136288	-1.75142
2	0	0	1	597.211	-1.13677	-1.13638	-102.692	-1.06106	37	0.593426	0.116697	-1.7298
2	0	0	1	598.544	-1.12344	-1.12444	-87.4206	-1.18741	37	0.586439	0.0982993	-1.71088
2	0	0	1	599.878	-1.1101	-1.10987	-72.9588	-1.29393	37	0.578757	0.0809748	-1.68863
2	0	0	1	601.211	-1.09677	-1.09717	-59.2195	-1.38153	37	0.571081	0.0649741	-1.66825
2	0	0	1	602.545	-1.08343	-1.08408	-46.1404	-1.45128	37	0.562739	0.0500199	-1.64682
2	0	0	1	603.912	-1.06977	-1.06971	-33.6397	-1.50547	38	0.553138	0.0359848	-1.62285
2	0	0	1	605.245	-1.05643	-1.05664	-21.8218	-1.54201	38	0.541895	0.0230577	-1.59853
2	0	0	1	606.579	-1.0431	-1.04263	-10.0583	-1.56293	38	0.525847	0.0104871	-1.56848
2	1	0	1	607.946	-1.02943	-1.02941	2.77902	-1.56767	39	0.481811	-0.00286076	-1.51122
2	1	0	1	609.279	-1.01609	-1.01543	14.9745	-1.55544	38	0.365136	-0.0152056	-1.38057
2	1	0	1	610.613	-1.00276	-1.0023	22.6754	-1.52928	38	0.282466	-0.0227277	-1.28477
2	1	0	1	611.946	-0.989424	-0.989633	28.3751	-1.49511	38	0.205639	-0.028081	-1.19527
2	1	0	1	613.279	-0.976089	-0.976745	34.4652	-1.45346	38	-1.06691	-0.0336638	0.0901684
2	1	0	1	614.613	-0.962754	-0.96178	39.667	-1.4035	38	-1.0869	-0.0381509	0.125116
2	1	0	1	615.83	-0.950586	-0.948732	43.7551	-1.35254	38	-1.09887	-0.0415118	0.15014
2	1	0	1	615.872	-0.949919	-0.948462	44.5778	-1.35068	38	-1.1007	-0.0422803	0.152239

File: TS-82-25-08-30-800_2024-08-22_C01.txt
mode	error	time/s	<Ewe/V>
3	1	0.5	-0.422753
3	0	10	-0.423863
3	0	19.5	-0.426528
3	0	29	-0.429499
3	0	38.5	-0.432444
3	0	48	-0.433523
3	0	57.5	-0.435367
3	0	67	-0.437816
3	0	76.5	-0.439929
3	0	86	-0.44184
3	0	95.5	-0.443528
3	0	105	-0.445017
3	0	114.5	-0.446301
3	0	124	-0.447437
3	0	133.5	-0.448477
3	0	143	-0.449398
3	0	152.5	-0.450207
3	0	162	-0.450952
3	0	171.5	-0.451634
3	0	181	-0.452201
3	0	190.5	-0.452748
3	0	200	-0.453236
3	0	209.5	-0.453683
3	0	219	-0.454101
3	0	228.5	-0.454475
3	0	238	-0.454826
3	0	247.5	-0.455152
3	0	257	-0.455402
3	0	266.5	-0.455657
3	0	276	-0.455892
3	0	285.5	-0.456113
3	0	295	-0.455327
3	0	304.5	-0.455019
3	0	314	-0.455274
3	0	323.5	-0.455464
3	0	333	-0.455686
3	0	342.5	-0.455881
3	0	352	-0.456077
3	0	361.5	-0.456288
3	0	371	-0.456502
3	0	380.5	-0.456706
3	0	390	-0.456923
3	0	399.5	-0.457135
3	0	409	-0.45733
3	0	418.5	-0.457472
3	0	428	-0.457618
3	0	437.5	-0.457694
3	0	447	-0.457691
3	0	456.5	-0.457789
3	0	466	-0.457905
3	0	475.5	-0.457991
3	0	485	-0.45809
3	0	494.5	-0.458203
3	0	504	-0.458347
3	0	513.5	-0.458473
3	0	523	-0.458601
3	0	532.5	-0.458733
3	0	542	-0.458868
3	0	551.5	-0.458987
3	0	561	-0.45909
3	0	570.5	-0.459225
3	0	580	-0.459345
3	0	589.5	-0.459484
3	0	599	-0.459607
3	0	608.5	-0.459732
3	0	618	-0.459885
3	0	627.5	-0.460024
3	0	637	-0.46014
3	0	646.5	-0.460178
3	0	656	-0.460285
3	0	665.5	-0.46042
3	0	675	-0.460489
3	0	684.5	-0.460556
3	0	694	-0.460654
3	0	703.5	-0.460766
3	0	713	-0.460868
3	0	722.5	-0.460909
3	0	732	-0.461043
3	0	741.5	-0.461166
3	0	751	-0.461279
3	0	760.5	-0.461356
3	0	770	-0.461555
3	0	779.5	-0.461485
3	0	789	-2.6097
3	0	798.5	-2.85895
3	0	808	-2.73825
3	0	817.5	-2.77698
3	0	827	-2.69958
3	0	836.5	-2.54616
3	0	846	-2.40648
3	0	855.5	-2.38314
3	0	865	-2.26194
3	0	874.5	-2.27042
3	0	884	-2.1004
3	0	893.5	-2.17683
3	0	903	-2.12447
3	0	912.5	-2.0688
3	0	922	-2.14214
3	0	931.5	-2.07909
3	0	941	-2.01993
3	0	950.5	-1.98174
3	0	960	-2.01021
3	0	969.5	-2.08253
3	0	979	-2.07788
3	0	988.5	-2.02613
3	0	998	-2.11867
3	0	1007.5	-2.09352
3	0	1017	-2.0996
3	0	1026.5	-2.08619
3	0	1036	-1.97725
3	0	1045.5	-2.05153
3	0	1055	-1.98705
3	0	1064.5	-2.06808
3	0	1074	-2.03118
3	0	1083.5	-2.02972
3	0	1093	-1.99462
3	0	1102.5	-2.00974
3	0	1112	-2.01689
3	0	1121.5	-1.98304
3	0	1131	-2.00294
3	0	1140.5	-1.90233
3	0	1150	-2.0565
3	0	1159.5	-2.05067
3	0	1169	-2.00017
3	0	1178.5	-2.03755
3	0	1188	-2.05791
3	0	1197.5	-2.0411
3	0	1207	-2.0787
3	0	1216.5	-2.02939
3	0	1226	-2.04196
3	0	1235.5	-2.06282
3	0	1245	-2.02688
3	0	1254.5	-1.98181
3	0	1264	-2.05758
3	0	1273.5	-2.03849
3	0	1283	-2.03787
3	0	1292.5	-2.01877
3	0	1302	-2.01846
3	0	1311.5	-2.00786
3	0	1321	-1.92788
3	0	1330.5	-2.03803
3	0	1340	-2.0184
3	0	1349.5	-2.02592
3	0	1359	-2.03013
3	0	1368.5	-2.00829
3	0	1378	-2.01855
3	0	1387.5	-2.02829
3	0	1397	-2.00654
3	0	1406.5	-1.97941
3	0	1416	-2.04309
3	0	1425.5	-2.02564
3	0	1435	-2.00472
3	0	1444.5	-2.01441
3	0	1454	-1.9969
3	0	1463.5	-2.01237
3	0	1473	-2.01572
3	0	1482.5	-2.0592
3	0	1492	-2.01494
3	0	1501.5	-2.02044
3	0	1511	-1.99977
3	0	1520.5	-2.01586
3	0	1530	-2.02698
3	0	1539.5	-1.98719
3	0	1549	-2.04015
3	0	1558.5	-1.98491
3	0	1568	-2.00911
3	0	1577.5	-2.04746
3	0	1587	-1.99488
3	0	1596.5	-2.007
3	0	1606	-1.99573
3	0	1615.5	-1.96743
3	0	1625	-2.01729
3	0	1634.5	-2.00779
3	0	1644	-2.00782
3	0	1653.5	-2.03026
3	0	1663	-2.00725
3	0	1672.5	-2.01256
3	0	1682	-2.01309
3	0	1691.5	-2.02197
3	0	1701	-2.02544
3	0	1710.5	-2.01627
3	0	1720	-2.00059
3	0	1729.5	-2.01359
3	0	1739	-2.01814
3	0	1748.5	-1.99055
3	0	1758	-2.00369
3	0	1767.5	-1.99194
3	0	1777	-2.00263
3	0	1786.5	-2.00452
3	0	1796	-2.02777
3	0	1805.5	-2.01584
3	0	1815	-2.03478
3	0	1824.5	-1.98899
3	0	1834	-2.03197
3	0	1843.5	-2.03343
3	0	1853	-2.00683
3	0	1862.5	-2.00342
3	0	1872	-2.00449
3	0	1881.5	-2.02228
3	0	1891	-2.02723
3	0	1900.5	-2.02605
3	0	1910	-2.01588
3	0	1919.5	-1.98961
3	0	1929	-1.9894
3	0	1938.5	-1.9962
3	0	1948	-1.99642
3	0	1957.5	-1.98881
3	0	1967	-1.96506
3	0	1976.5	-1.98461
3	0	1986	-2.02016
3	0	1995.5	-1.95425
3	0	2005	-1.99143
3	0	2014.5	-2.00694
3	0	2024	-1.97983
3	0	2033.5	-1.97875
3	0	2043	-2.01847
3	0	2052.5	-1.99153
3	0	2062	-2.00912
3	0	2071.5	-2.00446
3	0	2081	-1.96635
3	0	2090.5	-1.97212
3	0	2100	-1.95426
3	0	2109.5	-1.9777
3	0	2119	-1.98594
3	0	2128.5	-2.03285
3	0	2138	-1.98947
3	0	2147.5	-1.96286
3	0	2157	-2.01075
3	0	2166.5	-1.96442
3	0	2176	-2.0106
3	0	2185.5	-1.98496
3	0	2195	-1.99564
3	0	2204.5	-1.97031
3	0	2214	-1.97375
3	0	2223.5	-1.94505
3	0	2233	-1.95892
3	0	2242.5	-1.97246
3	0	2252	-1.96946
3	0	2261.5	-1.96157
3	0	2271	-1.9434
3	0	2280.5	-1.92844
3	0	2290	-1.97562
3	0	2299.5	-1.99311
3	0	2309	-1.94893
3	0	2318.5	-1.99212
3	0	2328	-1.9681
3	0	2337.5	-1.97889
3	0	2347	-1.97604
3	0	2356.5	-1.93352
3	0	2366	-1.97314
3	0	2375.5	-1.96821
3	0	2385	-1.96683
3	0	2394.5	-1.94764
3	0	2404	-1.96616
3	0	2413.5	-1.95038
3	0	2423	-1.95481
3	0	2432.5	-1.98079
3	0	2442	-1.9426
3	0	2451.5	-1.92352
3	0	2461	-1.94412
3	0	2470.5	-1.97344
3	0	2480	-1.93334
3	0	2489.5	-1.95485
3	0	2499	-1.95914
3	0	2508.5	-1.96821
3	0	2518	-1.97279
3	0	2527.5	-1.97885
3	0	2537	-1.95842
3	0	2546.5	-1.97596
3	0	2556	-1.93421
3	0	2565.5	-1.93396
3	0	2575	-1.96747
3	0	2584.5	-1.02965
3	0	2594	-1.01209
3	0	2603.5	-1.0019
3	0	2613	-0.995996
3	0	2622.5	-0.992097
3	0	2632	-0.989251
3	0	2641.5	-0.987159
3	0	2651	-0.985582
3	0	2660.5	-0.984343
3	0	2670	-0.983314
3	0	2679.5	-0.982449
3	0	2689	-0.981723
3	0	2698.5	-0.981076
3	0	2704.95	-0.980322

File: TS-82-25-08-60-400c_2024-08-22_C01.txt
mode	error	time/s	<Ewe/V>
3	0	0.5	-0.465186
3	0	13.5	-0.46514
3	0	26.5	-0.465068
3	0	39.5	-0.464488
3	0	52.5	-0.464014
3	0	65.5	-0.46365
3	0	78.5	-0.463898
3	0	91.5	-0.464322
3	0	104.5	-0.464644
3	0	117.5	-0.464826
3	0	130.5	-1.82783
3	0	143.5	-1.96176
3	0	156.5	-1.99702
3	0	169.5	-2.03796
3	0	182.5	-1.92834
3	0	195.5	-1.90312
3	0	208.5	-1.85501
3	0	221.5	-1.89137
3	0	234.5	-1.81581
3	0	247.5	-1.78321
3	0	260.5	-1.80448
3	0	273.5	-1.7424
3	0	286.5	-1.75049
3	0	299.5	-1.76714
3	0	312.5	-1.75035
3	0	325.5	-1.74629
3	0	338.5	-1.75513
3	0	351.5	-1.73326
3	0	364.5	-1.75793
3	0	377.5	-1.77252
3	0	390.5	-1.7681
3	0	403.5	-1.74393
3	0	416.5	-1.74938
3	0	429.5	-1.73129
3	0	442.5	-1.70569
3	0	455.5	-1.70242
3	0	468.5	-1.69227
3	0	481.5	-1.65783
3	0	494.5	-1.65993
3	0	507.5	-1.69073
3	0	520.5	-1.68157
3	0	533.5	-1.66946
3	0	546.5	-1.70405
3	0	559.5	-1.69962
3	0	572.5	-1.68167
3	0	585.5	-1.6783
3	0	598.5	-1.67943
3	0	611.5	-1.65577
3	0	624.5	-1.661
3	0	637.5	-1.65982
3	0	650.5	-1.67116
3	0	663.5	-1.68613
3	0	676.5	-1.70622
3	0	689.5	-1.65371
3	0	702.5	-1.67697
3	0	715.5	-1.64837
3	0	728.5	-1.64149
3	0	741.5	-1.66212
3	0	754.5	-1.65005
3	0	767.5	-1.66971
3	0	780.5	-1.66457
3	0	793.5	-1.68308
3	0	806.5	-1.67428
3	0	819.5	-1.65305
3	0	832.5	-1.6609
3	0	845.5	-1.6693
3	0	858.5	-1.657
3	0	871.5	-1.65101
3	0	884.5	-1.64763
3	0	897.5	-1.65346
3	0	910.5	-1.66569
3	0	923.5	-1.66959
3	0	936.5	-1.67295
3	0	949.5	-1.67466
3	0	962.5	-1.651
3	0	975.5	-1.647
3	0	988.5	-1.65457
3	0	1001.5	-1.64509
3	0	1014.5	-1.64685
3	0	1027.5	-1.64678
3	0	1040.5	-1.64796
3	0	1053.5	-1.6511
3	0	1066.5	-1.66166
3	0	1079.5	-1.65712
3	0	1092.5	-1.64475
3	0	1105.5	-1.65911
3	0	1118.5	-1.63656
3	0	1131.5	-1.63361
3	0	1144.5	-1.63393
3	0	1157.5	-1.64463
3	0	1170.5	-1.64698
3	0	1183.5	-1.66982
3	0	1196.5	-1.66934
3	0	1209.5	-1.65923
3	0	1222.5	-1.64849
3	0	1235.5	-1.64312
3	0	1248.5	-1.63888
3	0	1261.5	-1.62945
3	0	1274.5	-1.63947
3	0	1287.5	-1.64066
3	0	1300.5	-1.63238
3	0	1313.5	-1.64182
3	0	1326.5	-1.64901
3	0	1339.5	-1.64027
3	0	1352.5	-1.6231
3	0	1365.5	-1.63153
3	0	1378.5	-1.6376
3	0	1391.5	-1.62124
3	0	1404.5	-1.62982
3	0	1417.5	-1.63815
3	0	1430.5	-1.63989
3	0	1443.5	-1.65317
3	0	1456.5	-1.63537
3	0	1469.5	-1.63817
3	0	1482.5	-1.6162
3	0	1495.5	-1.61855
3	0	1508.5	-1.62143
3	0	1521.5	-1.62263
3	0	1534.5	-1.63161
3	0	1547.5	-1.62046
3	0	1560.5	-1.64462
3	0	1573.5	-1.63953
3	0	1586.5	-1.64918
3	0	1599.5	-1.62545
3	0	1612.5	-1.63079
3	0	1625.5	-1.61245
3	0	1638.5	-1.61324
3	0	1651.5	-1.62221
3	0	1664.5	-1.62538
3	0	1677.5	-1.61848
3	0	1690.5	-1.63866
3	0	1703.5	-1.63212
3	0	1716.5	-1.64014
3	0	1729.5	-1.62616
3	0	1742.5	-1.61161
3	0	1755.5	-1.6202
3	0	1768.5	-1.61604
3	0	1781.5	-1.62023
3	0	1794.5	-1.63495
3	0	1807.5	-1.63936
3	0	1820.5	-1.6366
3	0	1833.5	-1.63682
3	0	1846.5	-1.62045
3	0	1859.5	-1.62141
3	0	1872.5	-1.61672
3	0	1885.5	-1.60867
3	0	1898.5	-1.61273
3	0	1911.5	-1.60932
3	0	1924.5	-1.63221
3	0	1937.5	-1.64464
3	0	1950.5	-1.63878
3	0	1963.5	-1.62967
3	0	1976.5	-1.61723
3	0	1989.5	-1.62192
3	0	2002.5	-1.60771
3	0	2015.5	-1.61434
3	0	2028.5	-1.62043
3	0	2041.5	-1.62746
3	0	2054.5	-1.63288
3	0	2067.5	-1.62966
3	0	2080.5	-1.63159
3	0	2093.5	-1.6308
3	0	2106.5	-1.62275
3	0	2119.5	-1.62497
3	0	2132.5	-1.60979
3	0	2145.5	-1.60071
3	0	2158.5	-1.62265
3	0	2171.5	-1.62935
3	0	2184.5	-1.64319
3	0	2197.5	-1.63021
3	0	2210.5	-1.61994
3	0	2223.5	-1.62119
3	0	2236.5	-1.6135
3	0	2249.5	-1.6037
3	0	2262.5	-1.6004
3	0	2275.5	-1.60796
3	0	2288.5	-1.61851
3	0	2301.5	-1.62188
3	0	2314.5	-1.64087
3	0	2327.5	-1.63775
3	0	2340.5	-1.62086
3	0	2353.5	-1.62036
3	0	2366.5	-1.61121
3	0	2379.5	-1.6071
3	0	2392.5	-1.61302
3	0	2405.5	-1.62011
3	0	2418.5	-1.62069
3	0	2431.5	-1.63352
3	0	2444.5	-1.62035
3	0	2457.5	-1.62238
3	0	2470.5	-1.60604
3	0	2483.5	-1.61363
3	0	2496.5	-1.60269
3	0	2509.5	-1.59853
3	0	2522.5	-1.60678
3	0	2535.5	-1.61257
3	0	2548.5	-1.62293
3	0	2561.5	-1.62667
3	0	2574.5	-1.62231
3	0	2587.5	-1.62794
3	0	2600.5	-1.61922
3	0	2613.5	-1.60554
3	0	2626.5	-1.59924
3	0	2639.5	-1.59055
3	0	2652.5	-1.59318
3	0	2665.5	-1.5961
3	0	2678.5	-1.61285
3	0	2691.5	-1.63036
3	0	2704.5	-1.62494
3	0	2717.5	-1.62009
3	0	2730.5	-1.60573
3	0	2743.5	-1.60222
3	0	2756.5	-1.59318
3	0	2769.5	-1.60466
3	0	2782.5	-1.60843
3	0	2795.5	-1.61665
3	0	2808.5	-1.62685
3	0	2821.5	-1.60887
3	0	2834.5	-1.62543
3	0	2847.5	-1.61362
3	0	2860.5	-1.60401
3	0	2873.5	-1.6088
3	0	2886.5	-1.59404
3	0	2899.5	-1.60585
3	0	2912.5	-1.60749
3	0	2925.5	-1.61807
3	0	2938.5	-1.61392
3	0	2951.5	-1.61712
3	0	2964.5	-1.60938
3	0	2977.5	-1.61058
3	0	2990.5	-1.60733
3	0	3003.5	-1.59588
3	0	3016.5	-1.59637
3	0	3029.5	-1.59683
3	0	3042.5	-1.5991
3	0	3055.5	-1.60815
3	0	3068.5	-1.61862
3	0	3081.5	-1.61827
3	0	3094.5	-1.61096
3	0	3107.5	-1.60799
3	0	3120.5	-1.60668
3	0	3133.5	-1.59541
3	0	3146.5	-1.59608
3	0	3159.5	-1.60062
3	0	3172.5	-1.61543
3	0	3185.5	-1.60864
3	0	3198.5	-1.61213
3	0	3211.5	-1.59865
3	0	3224.5	-1.60101
3	0	3237.5	-1.59431
3	0	3250.5	-1.58972
3	0	3263.5	-1.58827
3	0	3276.5	-1.60003
3	0	3289.5	-1.61207
3	0	3302.5	-1.61876
3	0	3315.5	-1.61117
3	0	3328.5	-1.61068
3	0	3341.5	-1.60589
3	0	3354.5	-1.59645
3	0	3367.5	-1.58652
3	0	3380.5	-1.59067
3	0	3393.5	-1.58355
3	0	3406.5	-1.6107
3	0	3419.5	-1.61706
3	0	3432.5	-1.61437
3	0	3445.5	-1.61308
3	0	3458.5	-1.60653
3	0	3471.5	-1.59311
3	0	3484.5	-1.58683
3	0	3497.5	-1.58083
3	0	3510.5	-1.58758
3	0	3523.5	-1.59001
3	0	3536.5	-1.59387
3	0	3549.5	-1.60422
3	0	3562.5	-1.59884
3	0	3575.5	-1.60804
3	0	3588.5	-1.59535
3	0	3601.5	-1.59778
3	0	3614.5	-1.59217
3	0	3627.5	-1.59142
3	0	3640.5	-1.59438
3	0	3653.5	-1.58692
3	0	3666.5	-1.58451
3	0	3679.5	-1.60619
3	0	3692.5	-1.5995
3	0	3705.5	-1.60301
3	0	3718.5	-1.58919
3	0	3731.5	-1.01071
3	0	3744.5	-0.992725
3	0	3757.5	-0.985451
3	0	3770.5	-0.982152
3	0	3783.5	-0.980084
3	0	3796.5	-0.97849
3	0	3809.5	-0.976731
3	0	3821.34	-0.975642

File: TS-82-25-08-120-200_2024-08-22_C01.txt
mode	error	time/s	<Ewe/V>
3	1	0.5	-0.436846
3	0	25	-0.441341
3	0	49.5	-0.444943
3	0	74	-0.447682
3	0	98.5	-0.450165
3	0	123	-0.451171
3	0	147.5	-0.453023
3	0	172	-0.453975
3	0	196.5	-0.4543
3	0	221	-0.455417
3	0	245.5	-0.455862
3	0	270	-0.456791
3	0	294.5	-0.456929
3	0	319	-0.456798
3	0	343.5	-0.456704
3	0	368	-0.457163
3	0	392.5	-0.457403
3	0	417	-0.457651
3	0	441.5	-0.458054
3	0	466	-0.458296
3	0	490.5	-0.458475
3	0	515	-0.459234
3	0	539.5	-0.459714
3	0	564	-0.46042
3	0	588.5	-0.460937
3	0	613	-0.461444
3	0	637.5	-0.461983
3	0	662	-0.462625
3	0	686.5	-0.463205
3	0	711	-0.464036
3	0	735.5	-0.484257
3	0	760	-0.46493
3	0	784.5	-1.47597
3	0	809	-1.549
3	0	833.5	-1.56626
3	0	858	-1.50775
3	0	882.5	-1.49764
3	0	907	-1.45646
3	0	931.5	-1.43667
3	0	956	-1.4373
3	0	980.5	-1.38341
3	0	1005	-1.40602
3	0	1029.5	-1.43414
3	0	1054	-1.44859
3	0	1078.5	-1.41472
3	0	1103	-1.41074
3	0	1127.5	-1.40045
3	0	1152	-1.39276
3	0	1176.5	-1.40731
3	0	1201	-1.40896
3	0	1225.5	-1.41121
3	0	1250	-1.38517
3	0	1274.5	-1.38226
3	0	1299	-1.40309
3	0	1323.5	-1.40203
3	0	1348	-1.38735
3	0	1372.5	-1.37841
3	0	1397	-1.36408
3	0	1421.5	-1.37778
3	0	1446	-1.36623
3	0	1470.5	-1.36246
3	0	1495	-1.35929
3	0	1519.5	-1.35616
3	0	1544	-1.35457
3	0	1568.5	-1.377
3	0	1593	-1.35765
3	0	1617.5	-1.36287
3	0	1642	-1.34636
3	0	1666.5	-1.36637
3	0	1691	-1.37959
3	0	1715.5	-1.35321
3	0	1740	-1.34465
3	0	1764.5	-1.3586
3	0	1789	-1.36412
3	0	1813.5	-1.37078
3	0	1838	-1.35493
3	0	1862.5	-1.34515
3	0	1887	-1.34233
3	0	1911.5	-1.37466
3	0	1936	-1.36141
3	0	1960.5	-1.33806
3	0	1985	-1.34523
3	0	2009.5	-1.3553
3	0	2034	-1.3633
3	0	2058.5	-1.36034
3	0	2083	-1.35693
3	0	2107.5	-1.34419
3	0	2132	-1.33482
3	0	2156.5	-1.35748
3	0	2181	-1.36294
3	0	2205.5	-1.34772
3	0	2230	-1.34673
3	0	2254.5	-1.3413
3	0	2279	-1.3581
3	0	2303.5	-1.35373
3	0	2328	-1.35451
3	0	2352.5	-1.34117
3	0	2377	-1.34727
3	0	2401.5	-1.35347
3	0	2426	-1.3638
3	0	2450.5	-1.34941
3	0	2475	-1.34414
3	0	2499.5	-1.34712
3	0	2524	-1.36601
3	0	2548.5	-1.36066
3	0	2573	-1.35116
3	0	2597.5	-1.34749
3	0	2622	-1.3503
3	0	2646.5	-1.35652
3	0	2671	-1.36375
3	0	2695.5	-1.35772
3	0	2720	-1.35071
3	0	2744.5	-1.34683
3	0	2769	-1.3618
3	0	2793.5	-1.35773
3	0	2818	-1.3466
3	0	2842.5	-1.34625
3	0	2867	-1.35797
3	0	2891.5	-1.35384
3	0	2916	-1.35948
3	0	2940.5	-1.34755
3	0	2965	-1.344
3	0	2989.5	-1.35614
3	0	3014	-1.35964
3	0	3038.5	-1.35846
3	0	3063	-1.35468
3	0	3087.5	-1.34597
3	0	3112	-1.35015
3	0	3136.5	-1.36054
3	0	3161	-1.3502
3	0	3185.5	-1.3533
3	0	3210	-1.34172
3	0	3234.5	-1.35389
3	0	3259	-1.36232
3	0	3283.5	-1.36427
3	0	3308	-1.34696
3	0	3332.5	-1.35108
3	0	3357	-1.35202
3	0	3381.5	-1.35437
3	0	3406	-1.35112
3	0	3430.5	-1.32635
3	0	3455	-1.3347
3	0	3479.5	-1.33464
3	0	3504	-1.35242
3	0	3528.5	-1.3362
3	0	3553	-1.33521
3	0	3577.5	-1.34592
3	0	3602	-1.34695
3	0	3626.5	-1.34605
3	0	3651	-1.33909
3	0	3675.5	-1.33681
3	0	3700	-1.34797
3	0	3724.5	-1.36175
3	0	3749	-1.36201
3	0	3773.5	-1.32758
3	0	3798	-1.33503
3	0	3822.5	-1.34776
3	0	3847	-1.35483
3	0	3871.5	-1.34903
3	0	3896	-1.33857
3	0	3920.5	-1.33987
3	0	3945	-1.34198
3	0	3969.5	-1.3403
3	0	3994	-1.34563
3	0	4018.5	-1.34197
3	0	4043	-1.3252
3	0	4067.5	-1.35724
3	0	4092	-1.35406
3	0	4116.5	-1.33654
3	0	4141	-1.33868
3	0	4165.5	-1.3393
3	0	4190	-1.34641
3	0	4214.5	-1.33741
3	0	4239	-1.34322
3	0	4263.5	-1.30394
3	0	4288	-1.33753
3	0	4312.5	-1.34836
3	0	4337	-1.3441
3	0	4361.5	-1.34701
3	0	4386	-1.3392
3	0	4410.5	-1.34322
3	0	4435	-1.34295
3	0	4459.5	-1.3523
3	0	4484	-1.34939
3	0	4508.5	-1.33852
3	0	4533	-1.3411
3	0	4557.5	-1.35602
3	0	4582	-1.3629
3	0	4606.5	-1.34153
3	0	4631	-1.34749
3	0	4655.5	-1.33654
3	0	4680	-1.35806
3	0	4704.5	-1.36633
3	0	4729	-1.35813
3	0	4753.5	-1.33702
3	0	4778	-1.34784
3	0	4802.5	-1.34122
3	0	4827	-1.34769
3	0	4851.5	-1.33889
3	0	4876	-1.33427
3	0	4900.5	-1.33879
3	0	4925	-1.34423
3	0	4949.5	-1.34357
3	0	4974	-1.3297
3	0	4998.5	-1.33707
3	0	5023	-1.35506
3	0	5047.5	-1.36224
3	0	5072	-1.33274
3	0	5096.5	-1.32837
3	0	5121	-1.31664
3	0	5145.5	-1.3281
3	0	5170	-1.33363
3	0	5194.5	-1.33841
3	0	5219	-1.31534
3	0	5243.5	-1.32687
3	0	5268	-1.33983
3	0	5292.5	-1.34278
3	0	5317	-1.33389
3	0	5341.5	-1.33326
3	0	5366	-1.33348
3	0	5390.5	-1.33908
3	0	5415	-1.35404
3	0	5439.5	-1.33238
3	0	5464	-1.32727
3	0	5488.5	-1.33453
3	0	5513	-1.33835
3	0	5537.5	-1.34322
3	0	5562	-1.33627
3	0	5586.5	-1.33476
3	0	5611	-1.32641
3	0	5635.5	-1.34044
3	0	5660	-1.34714
3	0	5684.5	-1.33015
3	0	5709	-1.324
3	0	5733.5	-1.32301
3	0	5758	-1.3561
3	0	5782.5	-1.34513
3	0	5807	-1.32899
3	0	5831.5	-1.33151
3	0	5856	-1.33245
3	0	5880.5	-1.33156
3	0	5905	-1.357
3	0	5929.5	-1.33301
3	0	5954	-1.32929
3	0	5978.5	-1.33646
3	0	6003	-1.35334
3	0	6027.5	-1.33717
3	0	6052	-1.34772
3	0	6076.5	-1.32656
3	0	6101	-1.33761
3	0	6125.5	-1.33882
3	0	6150	-1.33288
3	0	6174.5	-1.33268
3	0	6199	-1.334
3	0	6223.5	-1.32199
3	0	6248	-1.36509
3	0	6272.5	-1.33801
3	0	6297	-1.32947
3	0	6321.5	-1.33061
3	0	6346	-1.34976
3	0	6370.5	-1.33815
3	0	6395	-1.33892
3	0	6419.5	-1.32751
3	0	6444	-1.3263
3	0	6468.5	-1.33959
3	0	6493	-1.344
3	0	6517.5	-1.32572
3	0	6542	-1.33612
3	0	6566.5	-1.33121
3	0	6591	-1.33104
3	0	6615.5	-1.32953
3	0	6640	-1.33226
3	0	6664.5	-1.34709
3	0	6689	-1.33764
3	0	6713.5	-1.35492
3	0	6738	-1.35599
3	0	6762.5	-1.32629
3	0	6787	-1.33124
3	0	6811.5	-1.32278
3	0	6836	-1.33999
3	0	6860.5	-1.33179
3	0	6885	-1.33191
3	0	6909.5	-1.31629
3	0	6934	-1.33646
3	0	6958.5	-1.33666
3	0	6983	-1.3543
3	0	7007.5	-1.34842
3	0	7032	-1.32801
3	0	7056.5	-1.33901
3	0	7081	-1.3397
3	0	7105.5	-1.34381
3	0	7130	-1.32706
3	0	7154.5	-1.32887
3	0	7179	-1.33576
3	0	7203.5	-1.34042
3	0	7228	-1.34143
3	0	7230	-1.34321