Folder: Microstructure_-_FaradaicEfficiency_Electrodeposited_Iron_JECS (part 3)

File: TS-82-25-02-60-100_2024-07-22_clean_NaOH_2_04_LSV_C01.txt
mode	ox/red	error	control changes	time/s	control/V	Ewe/V	<I>/mA	(Q-Qo)/C	I Range	<Ece>/V	P/W	Ewe-Ece/V
2	0	0	0	123.592	-1.25527	-1.25879	-202.986	-0.00721938	37	0.649143	0.255517	-1.90793
2	0	0	1	124.776	-1.24344	-1.24187	-188.742	-0.238125	37	0.64403	0.234392	-1.8859
2	0	0	1	126.109	-1.23011	-1.23072	-173.479	-0.479359	37	0.638396	0.213505	-1.86911
2	0	0	1	127.443	-1.21677	-1.22203	-157.971	-0.699974	37	0.632222	0.193045	-1.85425
2	0	0	1	128.776	-1.20343	-1.20441	-143.097	-0.900404	37	0.626814	0.172348	-1.83122
2	0	0	1	130.11	-1.1901	-1.18852	-128.557	-1.08117	37	0.620103	0.152793	-1.80862
2	0	0	1	131.443	-1.17677	-1.18188	-114.365	-1.24272	37	0.614152	0.135166	-1.79603
2	0	0	1	132.777	-1.16343	-1.16252	-100.705	-1.38575	37	0.607734	0.117072	-1.77026
2	0	0	1	134.11	-1.1501	-1.14966	-87.535	-1.51092	37	0.601132	0.100636	-1.75079
2	0	0	1	135.444	-1.13676	-1.13601	-75.2146	-1.61906	37	0.59418	0.0854444	-1.73019
2	0	0	1	136.777	-1.12343	-1.1233	-63.6655	-1.71135	37	0.58766	0.0715157	-1.71096
2	0	0	1	138.111	-1.11009	-1.11148	-52.71	-1.78862	37	0.580314	0.0585861	-1.69179
2	0	0	1	139.477	-1.09642	-1.09497	-42.5475	-1.85332	38	0.572939	0.0465881	-1.66791
2	0	0	1	140.811	-1.08309	-1.08238	-33.2634	-1.90356	38	0.564925	0.0360036	-1.6473
2	0	0	1	142.144	-1.06975	-1.06939	-24.795	-1.942	38	0.556299	0.0265156	-1.62569
2	0	0	1	143.478	-1.05642	-1.05803	-16.6768	-1.96937	38	0.546955	0.0176445	-1.60498
2	0	0	1	144.811	-1.04308	-1.04404	-8.51478	-1.98598	38	0.532831	0.00888976	-1.57687
2	1	0	1	146.178	-1.02941	-1.03141	1.37772	-1.99089	39	0.497401	-0.00142099	-1.52881
2	1	0	1	147.545	-1.01575	-1.01973	11.2628	-1.98152	38	0.384437	-0.011485	-1.40417
2	1	0	1	148.878	-1.00241	-1.00314	12.5222	-1.96489	38	0.308911	-0.0125615	-1.31205
2	1	0	1	150.212	-0.989077	-0.988378	13.6257	-1.94745	38	0.268247	-0.0134673	-1.25663
2	1	0	1	151.545	-0.975743	-0.976807	15.5508	-1.92767	38	0.185233	-0.0151902	-1.16204
2	1	0	1	152.879	-0.962407	-0.961944	16.8433	-1.9061	38	-0.826781	-0.0162023	-0.135164
2	1	0	1	154.079	-0.950406	-0.950749	19.1087	-1.88447	38	-0.964953	-0.0181676	0.0142036
2	0	0	1	248.249	-1.24777	-1.24868	-196.036	-0.110047	37	0.639398	0.244785	-1.88807
2	0	0	1	249.583	-1.23444	-1.23503	-179.222	-0.35976	37	0.633521	0.221345	-1.86855
2	0	0	1	250.916	-1.2211	-1.22123	-162.751	-0.58737	37	0.627565	0.198756	-1.84879
2	0	0	1	252.25	-1.20777	-1.208	-147.069	-0.793569	37	0.62107	0.177659	-1.82907
2	0	0	1	253.583	-1.19443	-1.19552	-131.845	-0.979227	37	0.615311	0.157623	-1.81083
2	0	0	1	254.917	-1.1811	-1.18053	-117.088	-1.14489	37	0.608486	0.138226	-1.78901
2	0	0	1	256.25	-1.16777	-1.16881	-102.79	-1.29111	37	0.602071	0.120142	-1.77089
2	0	0	1	257.584	-1.15443	-1.15508	-89.1125	-1.41879	37	0.595172	0.102932	-1.75025
2	0	0	1	258.917	-1.1411	-1.1425	-76.1451	-1.52865	37	0.588344	0.0869962	-1.73085
2	0	0	1	260.251	-1.12776	-1.12806	-63.8201	-1.62169	37	0.581166	0.0719932	-1.70923
2	0	0	1	261.584	-1.11443	-1.1119	-52.3213	-1.69873	37	0.574057	0.0581763	-1.68596
2	0	0	1	262.951	-1.10076	-1.10163	-41.6355	-1.76259	38	0.566397	0.0458671	-1.66803
2	0	0	1	264.285	-1.08742	-1.0881	-31.8777	-1.81121	38	0.558376	0.0346861	-1.64647
2	0	0	1	265.618	-1.07409	-1.0733	-23.0369	-1.84752	38	0.54959	0.0247255	-1.62289
2	0	0	1	266.951	-1.06075	-1.06375	-14.9394	-1.87245	38	0.539237	0.0158917	-1.60298
2	0	0	1	268.285	-1.04742	-1.04861	-7.21814	-1.88695	38	0.525139	0.00756902	-1.57375
2	0	0	1	269.618	-1.03408	-1.03546	0.958555	-1.89103	39	0.493791	-0.000992541	-1.52925
2	1	0	1	270.985	-1.02041	-1.02072	11.5427	-1.8823	38	0.389772	-0.0117819	-1.4105
2	1	0	1	272.319	-1.00708	-1.00942	16.9367	-1.8615	38	0.294967	-0.0170962	-1.30438
2	1	0	1	273.652	-0.993745	-0.993219	15.0454	-1.8403	38	0.258418	-0.0149434	-1.25164
2	1	0	1	274.986	-0.980409	-0.980148	15.6846	-1.81957	38	0.0475325	-0.0153732	-1.02768
2	1	0	1	276.319	-0.967075	-0.967331	16.2805	-1.79807	38	-0.870876	-0.0157486	-0.0964546
2	1	0	1	277.653	-0.953739	-0.954955	18.382	-1.77488	38	-0.980016	-0.017554	0.0250605
2	0	0	1	372.256	-1.24711	-1.24942	-196.144	-0.0430588	37	0.634337	0.245067	-1.88376
2	0	0	1	373.59	-1.23377	-1.23595	-179.347	-0.293012	37	0.628411	0.221664	-1.86436
2	0	0	1	374.923	-1.22044	-1.22259	-162.867	-0.520748	37	0.622571	0.19912	-1.84516
2	0	0	1	376.257	-1.2071	-1.20855	-147.402	-0.727428	37	0.616197	0.178142	-1.82475
2	0	0	1	377.59	-1.19377	-1.1943	-131.9	-0.913256	37	0.610054	0.157528	-1.80435
2	0	0	1	378.924	-1.18043	-1.18055	-116.792	-1.07868	37	0.603569	0.137878	-1.78412
2	0	0	1	380.257	-1.1671	-1.16709	-102.305	-1.22434	37	0.597306	0.119398	-1.76439
2	0	0	1	381.591	-1.15376	-1.15499	-88.1455	-1.35082	37	0.590105	0.101807	-1.74509
2	0	0	1	382.924	-1.14043	-1.14078	-74.8901	-1.45909	37	0.583537	0.0854329	-1.72431
2	0	0	1	384.258	-1.12709	-1.12778	-62.5258	-1.5502	37	0.576185	0.0705151	-1.70396
2	0	0	1	385.591	-1.11376	-1.1146	-50.7754	-1.62523	37	0.568673	0.0565944	-1.68327
2	0	0	1	386.958	-1.10009	-1.10082	-39.7751	-1.68669	38	0.560364	0.0437852	-1.66118
2	0	0	1	388.292	-1.08675	-1.08739	-30.0374	-1.73286	38	0.552255	0.0326624	-1.63965
2	0	0	1	389.625	-1.07342	-1.07198	-21.1662	-1.76656	38	0.543307	0.0226897	-1.61529
2	0	0	1	390.959	-1.06008	-1.06006	-12.9525	-1.78894	38	0.532503	0.0137305	-1.59257
2	0	0	1	392.292	-1.04675	-1.04703	-5.24922	-1.80075	38	0.517078	0.00549607	-1.56411
2	1	0	1	393.625	-1.03342	-1.03526	2.95582	-1.80225	39	0.477074	-0.00306002	-1.51233
2	1	0	1	394.959	-1.02008	-1.02097	13.461	-1.7912	38	0.364814	-0.0137433	-1.38579
2	1	0	1	396.292	-1.00675	-1.00577	18.2336	-1.76809	38	0.284817	-0.0183388	-1.29059
2	1	0	1	397.626	-0.993411	-0.993577	15.7563	-1.74577	38	0.250335	-0.0156551	-1.24391
2	1	0	1	398.959	-0.980077	-0.980966	15.7854	-1.72462	38	-0.135925	-0.0154849	-0.845041
2	1	0	1	400.293	-0.966741	-0.96786	16.4234	-1.70313	38	-0.896785	-0.0158956	-0.0710744
2	1	0	1	401.626	-0.953407	-0.951523	18.8629	-1.67966	38	-0.997709	-0.0179485	0.0461859
2	0	0	1	496.997	-1.24844	-1.25075	-199.378	-0.043803	37	0.631122	0.249372	-1.88187
2	0	0	1	498.33	-1.23511	-1.2378	-182.59	-0.297964	37	0.624766	0.226009	-1.86256
2	0	0	1	499.664	-1.22177	-1.22127	-166.404	-0.530267	37	0.61924	0.203223	-1.84051
2	0	0	1	500.997	-1.20844	-1.20935	-150.788	-0.741313	37	0.613328	0.182356	-1.82268
2	0	0	1	502.331	-1.1951	-1.19577	-135.319	-0.931596	37	0.607694	0.16181	-1.80346
2	0	0	1	503.664	-1.18177	-1.18344	-120.21	-1.10152	37	0.601489	0.142261	-1.78493
2	0	0	1	504.998	-1.16843	-1.16874	-105.659	-1.25168	37	0.594833	0.123487	-1.76357
2	0	0	1	506.331	-1.1551	-1.15374	-91.6008	-1.38279	37	0.588569	0.105683	-1.74231
2	0	0	1	507.665	-1.14176	-1.14151	-78.0798	-1.49535	37	0.58158	0.0891289	-1.72309
2	0	0	1	508.998	-1.12843	-1.1284	-65.137	-1.59034	37	0.574632	0.0735007	-1.70303
2	0	0	1	510.332	-1.11509	-1.11551	-53.1124	-1.66871	37	0.567242	0.0592474	-1.68275
2	0	0	1	511.699	-1.10142	-1.1042	-41.6152	-1.7329	38	0.558733	0.0459514	-1.66293
2	0	0	1	513.032	-1.08809	-1.08935	-31.3319	-1.78113	38	0.551141	0.0341313	-1.64049
2	0	0	1	514.366	-1.07475	-1.0757	-21.9745	-1.81626	38	0.541828	0.0236381	-1.61753
2	0	0	1	515.699	-1.06142	-1.05978	-13.4349	-1.8395	38	0.530836	0.0142381	-1.59062
2	0	0	1	517.033	-1.04808	-1.04839	-5.56335	-1.85178	38	0.515265	0.00583253	-1.56365
2	1	0	1	518.366	-1.03475	-1.03577	2.52152	-1.85374	39	0.478287	-0.00261171	-1.51406
2	1	0	1	519.7	-1.02141	-1.02356	13.0399	-1.84332	38	0.369779	-0.0133471	-1.39334
2	1	0	1	521.033	-1.00808	-1.00993	18.5135	-1.82032	38	0.286102	-0.0186973	-1.29603
2	1	0	1	522.367	-0.994744	-0.996618	15.6423	-1.79785	38	0.25681	-0.0155894	-1.25343
2	1	0	1	523.7	-0.98141	-0.981294	15.552	-1.77693	38	0.0383001	-0.015261	-1.01959
2	1	0	1	525.034	-0.968074	-0.967765	16.2786	-1.7557	38	-0.882969	-0.0157538	-0.0847954
2	1	0	1	526.367	-0.95474	-0.956233	18.7882	-1.73235	38	-0.995373	-0.0179659	0.0391404
2	0	0	1	621.137	-1.25111	-1.252	-207.9	-0.0457921	37	0.630974	0.26029	-1.88297
2	0	0	1	622.471	-1.23777	-1.23801	-190.475	-0.310968	37	0.625548	0.235809	-1.86355
2	0	0	1	623.804	-1.22444	-1.22443	-174.153	-0.553711	37	0.619737	0.213238	-1.84417
2	0	0	1	625.138	-1.2111	-1.21325	-157.576	-0.774533	37	0.61394	0.191179	-1.82719
2	0	0	1	626.471	-1.19777	-1.19532	-141.931	-0.973978	37	0.607611	0.169653	-1.80293
2	0	0	1	627.805	-1.18443	-1.18371	-126.466	-1.1526	37	0.601983	0.149699	-1.7857
2	0	0	1	629.138	-1.1711	-1.17302	-111.487	-1.31093	37	0.595816	0.130777	-1.76884
2	0	0	1	630.472	-1.15776	-1.16118	-96.8711	-1.44949	37	0.589081	0.112485	-1.75026
2	0	0	1	631.805	-1.14443	-1.14212	-82.8751	-1.56886	37	0.582383	0.0946531	-1.7245
2	0	0	1	633.139	-1.13109	-1.12969	-69.3912	-1.66998	37	0.57495	0.0783903	-1.70464
2	0	0	1	634.472	-1.11776	-1.11842	-56.7916	-1.75372	37	0.56801	0.0635167	-1.68643
2	0	0	1	635.822	-1.10426	-1.10486	-44.8503	-1.82187	37	0.559997	0.0495535	-1.66486
2	0	0	1	637.172	-1.09076	-1.09147	-34.0182	-1.8747	38	0.551765	0.0371298	-1.64324
2	0	0	1	638.506	-1.07742	-1.07736	-24.1081	-1.913	38	0.542236	0.0259732	-1.6196
2	0	0	1	639.839	-1.06409	-1.06438	-15.0458	-1.93869	38	0.53214	0.0160145	-1.59652
2	0	0	1	641.173	-1.05075	-1.05039	-7.01222	-1.95291	38	0.51794	0.00736558	-1.56833
2	0	0	1	642.506	-1.03742	-1.03757	0.857814	-1.95676	39	0.488035	-0.000890042	-1.52561
2	1	0	1	643.856	-1.02391	-1.02437	11.1557	-1.94857	39	0.392431	-0.0114276	-1.4168
2	1	0	1	645.207	-1.01041	-1.01054	18.7176	-1.92664	38	0.29258	-0.0189149	-1.30312
2	1	0	1	646.54	-0.997078	-0.996196	15.3959	-1.9039	38	0.265686	-0.0153374	-1.26188
2	1	0	1	647.874	-0.983743	-0.981771	15.2181	-1.88334	38	0.197107	-0.0149406	-1.17888
2	1	0	1	649.207	-0.970409	-0.970684	15.8728	-1.86257	38	-0.835227	-0.0154075	-0.135457
2	1	0	1	650.541	-0.957073	-0.955819	18.2479	-1.83979	38	-0.97366	-0.0174416	0.0178415
2	1	0	0	651.231	-0.949906	-0.957566	21.0305	-1.82645	38	-1.02078	-0.0201381	0.0632129

File: TS-82-25-02-120-100_2024-07-29_clean_NaOH_04_LSV_C01 (1).txt
mode	ox/red	error	control changes	time/s	control/V	Ewe/V	<I>/mA	(Q-Qo)/C	I Range	<Ece>/V	P/W	Ewe-Ece/V
2	0	0	1	123.593	-1.24395	-1.24459	-198.968	-0.00708608	37	0.644422	0.247633	-1.88901
2	0	0	1	124.11	-1.23879	-1.23928	-192.478	-0.107928	37	0.64256	0.238535	-1.88184
2	0	0	1	124.777	-1.23212	-1.23289	-184.225	-0.233346	37	0.639065	0.22713	-1.87196
2	0	0	1	125.443	-1.22545	-1.2257	-176.335	-0.353385	37	0.636528	0.216133	-1.86223
2	0	0	1	126.11	-1.21878	-1.21873	-168.546	-0.4682	37	0.633693	0.205413	-1.85243
2	0	0	1	126.777	-1.21212	-1.21249	-160.808	-0.577853	37	0.630531	0.194978	-1.84302
2	0	0	1	127.444	-1.20545	-1.20572	-153.382	-0.682471	37	0.627848	0.184937	-1.83357
2	0	0	1	128.11	-1.19878	-1.19916	-145.908	-0.782051	37	0.624944	0.174967	-1.8241
2	0	0	1	128.777	-1.19211	-1.19223	-138.723	-0.876783	37	0.621724	0.16539	-1.81396
2	0	0	1	129.444	-1.18545	-1.18477	-131.676	-0.966769	37	0.619006	0.156005	-1.80377
2	0	0	1	130.111	-1.17878	-1.17935	-124.64	-1.05208	37	0.616141	0.146995	-1.79549
2	0	0	1	130.777	-1.17211	-1.17201	-117.581	-1.13269	37	0.612666	0.137805	-1.78467
2	0	0	1	131.444	-1.16544	-1.16472	-110.802	-1.20872	37	0.609955	0.129053	-1.77468
2	0	0	1	132.111	-1.15878	-1.15692	-104.191	-1.28025	37	0.606781	0.12054	-1.7637
2	0	0	1	132.778	-1.15211	-1.15088	-97.5481	-1.34737	37	0.603873	0.112266	-1.75475
2	0	0	1	133.444	-1.14544	-1.14743	-91.08	-1.41009	37	0.600332	0.104508	-1.74777
2	0	0	1	134.111	-1.13877	-1.1398	-84.5459	-1.46853	37	0.597088	0.0963653	-1.73689
2	0	0	1	134.778	-1.13211	-1.13258	-78.4803	-1.5227	37	0.593885	0.0888852	-1.72646
2	0	0	1	135.445	-1.12544	-1.12709	-72.358	-1.57284	37	0.590436	0.081554	-1.71753
2	0	0	1	136.111	-1.11877	-1.11736	-66.4049	-1.61897	37	0.587484	0.0741983	-1.70484
2	0	0	1	136.778	-1.1121	-1.11227	-60.5905	-1.66117	37	0.583961	0.0673932	-1.69623
2	0	0	1	137.445	-1.10544	-1.10421	-55.0439	-1.69955	37	0.580604	0.0607799	-1.68481
2	0	0	1	138.112	-1.09877	-1.10055	-49.5849	-1.73428	37	0.576729	0.0545707	-1.67728
2	0	0	1	138.795	-1.09194	-1.09271	-44.0817	-1.76609	37	0.572868	0.0481687	-1.66558
2	0	0	1	139.478	-1.0851	-1.08561	-38.7388	-1.79428	38	0.568946	0.0420552	-1.65456
2	0	0	1	140.145	-1.07843	-1.07982	-33.7586	-1.81829	38	0.564636	0.0364532	-1.64445
2	0	0	1	140.812	-1.07177	-1.07253	-28.8256	-1.839	38	0.560503	0.0309164	-1.63304
2	0	0	1	141.479	-1.0651	-1.06693	-23.9734	-1.85645	38	0.555404	0.0255779	-1.62233
2	0	0	1	142.145	-1.05843	-1.05849	-19.2229	-1.87071	38	0.549836	0.0203472	-1.60832
2	0	0	1	142.812	-1.05176	-1.05281	-14.5218	-1.88181	38	0.543625	0.0152886	-1.59643
2	0	0	1	143.479	-1.0451	-1.04502	-9.83259	-1.88977	38	0.535677	0.0102752	-1.58069
2	0	0	1	144.146	-1.03843	-1.03856	-5.06398	-1.89459	38	0.524108	0.00525924	-1.56267
2	0	0	1	144.812	-1.03176	-1.03166	0.0490554	-1.89613	39	0.501437	-5.06087e-05	-1.5331
2	1	0	1	145.479	-1.02509	-1.02554	5.6496	-1.89409	39	0.452578	-0.00579387	-1.47811
2	1	0	1	146.162	-1.01826	-1.01976	11.5149	-1.88802	39	0.384281	-0.0117424	-1.40404
2	1	0	1	146.846	-1.01143	-1.01144	17.0226	-1.87811	38	0.332426	-0.0172173	-1.34386
2	1	0	1	147.513	-1.00476	-1.00481	19.9685	-1.86555	38	0.297067	-0.0200647	-1.30188
2	1	0	1	148.179	-0.998092	-0.997905	22.674	-1.85113	38	0.249312	-0.0226265	-1.24722
2	1	0	1	148.846	-0.991423	-0.990845	24.1887	-1.83528	38	-0.205206	-0.0239673	-0.78564
2	1	0	1	149.513	-0.984757	-0.985653	26.4374	-1.81829	38	-1.03543	-0.0260581	0.0497729
2	1	0	1	150.18	-0.97809	-0.978855	28.4681	-1.79984	38	-1.14905	-0.0278661	0.1702
2	1	0	1	150.846	-0.971422	-0.971709	30.2206	-1.78013	38	-1.14326	-0.0293656	0.171548
2	1	0	1	151.513	-0.964754	-0.965234	31.4813	-1.75938	38	-1.11803	-0.0303868	0.1528
2	1	0	1	152.18	-0.958088	-0.958163	31.7801	-1.73815	38	-1.10819	-0.0304505	0.150031
2	1	0	1	152.83	-0.951587	-0.951889	31.883	-1.71735	38	-1.10607	-0.0303491	0.154179
2	0	0	0	243	-1.24229	-1.23984	-199.056	-0.00708479	37	0.635372	0.246797	-1.87521
2	0	0	1	243.517	-1.23712	-1.23746	-192.408	-0.107945	37	0.63311	0.238096	-1.87057
2	0	0	1	244.184	-1.23045	-1.23146	-184.489	-0.233385	37	0.63017	0.22719	-1.86163
2	0	0	1	244.85	-1.22378	-1.22511	-176.629	-0.35362	37	0.627842	0.21639	-1.85295
2	0	0	1	245.517	-1.21712	-1.21777	-168.96	-0.46867	37	0.624932	0.205755	-1.8427
2	0	0	1	246.184	-1.21045	-1.21116	-161.298	-0.578596	37	0.622312	0.195358	-1.83348
2	0	0	1	246.851	-1.20378	-1.20255	-153.566	-0.683342	37	0.61919	0.184671	-1.82174
2	0	0	1	247.517	-1.19711	-1.19712	-146.193	-0.783102	37	0.616197	0.17501	-1.81332
2	0	0	1	248.184	-1.19045	-1.19422	-138.793	-0.877927	37	0.613551	0.165749	-1.80777
2	0	0	1	248.851	-1.18378	-1.18461	-131.429	-0.967857	37	0.610436	0.155693	-1.79505
2	0	0	1	249.518	-1.17711	-1.179	-124.199	-1.05289	37	0.607469	0.14643	-1.78647
2	0	0	1	250.184	-1.17044	-1.17009	-117.083	-1.13319	37	0.60456	0.136997	-1.77465
2	0	0	1	250.851	-1.16378	-1.16494	-110.15	-1.20881	37	0.60157	0.128318	-1.76651
2	0	0	1	251.518	-1.15711	-1.1571	-103.084	-1.27973	37	0.598407	0.119278	-1.75551
2	0	0	1	252.185	-1.15044	-1.15126	-96.2611	-1.34602	37	0.595349	0.110821	-1.74661
2	0	0	1	252.851	-1.14377	-1.14658	-89.6525	-1.40783	37	0.592275	0.102793	-1.73885
2	0	0	1	253.518	-1.13711	-1.13858	-83.0785	-1.46526	37	0.588762	0.0945915	-1.72734
2	0	0	1	254.185	-1.13044	-1.13149	-76.6781	-1.51834	37	0.585974	0.0867603	-1.71746
2	0	0	1	254.852	-1.12377	-1.12642	-70.3693	-1.56718	37	0.582647	0.0792651	-1.70906
2	0	0	1	255.518	-1.1171	-1.11756	-64.248	-1.61189	37	0.57885	0.0718008	-1.69641
2	0	0	1	256.185	-1.11044	-1.11163	-58.2425	-1.65256	37	0.575473	0.0647438	-1.6871
2	0	0	1	256.852	-1.10377	-1.1039	-52.4687	-1.68928	37	0.572163	0.0579202	-1.67606
2	0	0	1	257.519	-1.0971	-1.0968	-46.6599	-1.72216	37	0.568062	0.0511768	-1.66487
2	0	0	1	258.219	-1.0901	-1.09106	-40.9682	-1.75269	38	0.564078	0.0446989	-1.65514
2	0	0	1	258.885	-1.08343	-1.08352	-35.6673	-1.77811	38	0.559986	0.0386462	-1.6435
2	0	0	1	259.552	-1.07677	-1.07722	-30.5355	-1.80003	38	0.555706	0.0328934	-1.63292
2	0	0	1	260.219	-1.0701	-1.06999	-25.4754	-1.81856	38	0.550953	0.0272585	-1.62094
2	0	0	1	260.886	-1.06343	-1.06411	-20.5849	-1.83376	38	0.545892	0.0219045	-1.61
2	0	0	1	261.552	-1.05676	-1.05701	-15.7966	-1.84575	38	0.54006	0.0166971	-1.59707
2	0	0	1	262.219	-1.0501	-1.04993	-11.0652	-1.85458	38	0.532839	0.0116177	-1.58277
2	0	0	1	262.886	-1.04343	-1.04427	-6.35114	-1.86024	38	0.522887	0.00663232	-1.56716
2	0	0	1	263.553	-1.03676	-1.03662	-1.6051	-1.86279	39	0.506589	0.00166388	-1.54321
2	1	0	1	264.219	-1.03009	-1.03004	3.48162	-1.86205	39	0.471156	-0.00358619	-1.50119
2	1	0	1	264.886	-1.02343	-1.02342	9.13787	-1.85772	39	0.411644	-0.00935184	-1.43506
2	1	0	1	265.553	-1.01676	-1.01887	14.9076	-1.84956	38	0.34747	-0.0151888	-1.36634
2	1	0	1	266.22	-1.01009	-1.0108	19.9165	-1.8377	38	0.308031	-0.0201316	-1.31883
2	1	0	1	266.886	-1.00342	-1.00374	23.1435	-1.82318	38	0.271576	-0.02323	-1.27531
2	1	0	1	267.553	-0.996759	-0.996871	24.8763	-1.80705	38	0.212926	-0.0247984	-1.2098
2	1	0	1	268.22	-0.990091	-0.989737	25.9164	-1.79009	38	-0.922383	-0.0256504	-0.0673536
2	1	0	1	268.887	-0.983423	-0.983113	27.7382	-1.7721	38	-1.0551	-0.0272698	0.0719881
2	1	0	1	269.553	-0.976756	-0.976983	29.2637	-1.75298	38	-1.07252	-0.0285901	0.0955384
2	1	0	1	270.22	-0.970089	-0.97082	30.2928	-1.73299	38	-1.0785	-0.0294089	0.107682
2	1	0	1	270.887	-0.963421	-0.963887	30.8302	-1.7125	38	-1.08531	-0.0297169	0.121421
2	1	0	1	271.554	-0.956753	-0.957357	30.9278	-1.69182	38	-1.08912	-0.029609	0.131764
2	1	0	1	272.137	-0.95092	-0.951849	31.1053	-1.67366	38	-1.09167	-0.0296076	0.139817
2	1	0	0	272.212	-0.949919	-0.949696	31.6206	-1.67131	38	-1.09332	-0.0300299	0.143629

File: TS-82-25-02-120-100_2024-07-29_clean_NaOH_05_LSV_C01.txt
mode	ox/red	error	control changes	time/s	control/V	Ewe/V	<I>/mA	(Q-Qo)/C	I Range	<Ece>/V	P/W	Ewe-Ece/V
2	1	0	0	153.006	-0.950252	-0.949272	31.2748	0.00106029	38	-1.10504	-0.0296883	0.155765
2	1	0	1	153.523	-0.955421	-0.955437	19.1588	0.0133701	38	-1.07432	-0.018305	0.118879
2	1	0	1	154.189	-0.962087	-0.962661	9.24207	0.0224499	38	-1.02209	-0.00889698	0.0594292
2	1	0	1	154.889	-0.969089	-0.968895	1.89138	0.0260512	39	-0.916677	-0.00183255	-0.0522178
2	0	0	1	155.556	-0.975756	-0.975651	-3.526	0.0252929	39	-0.774665	0.00344015	-0.200986
2	0	0	1	156.223	-0.982423	-0.982961	-8.03076	0.0212572	39	-0.660361	0.00789392	-0.3226
2	0	0	1	156.923	-0.989425	-0.989844	-12.116	0.0140384	38	-0.0883671	0.0119929	-0.901477
2	0	0	1	157.59	-0.996091	-0.997084	-15.9538	0.00451622	38	0.401594	0.0159073	-1.39868
2	0	0	1	158.256	-1.00276	-1.00383	-19.4869	-0.00738637	38	0.433336	0.0195616	-1.43717
2	0	0	1	158.923	-1.00943	-1.00731	-23.2939	-0.0217881	38	0.443426	0.0234641	-1.45073
2	0	0	1	159.59	-1.01609	-1.01529	-27.1705	-0.0387732	38	0.465093	0.0275859	-1.48038
2	0	0	1	160.257	-1.02276	-1.02379	-30.2922	-0.0579751	38	0.542016	0.031013	-1.56581
2	0	0	1	160.923	-1.02943	-1.03007	-33.6978	-0.079487	38	0.55507	0.0347111	-1.58514
2	0	0	1	161.59	-1.0361	-1.03487	-36.8731	-0.103145	38	0.559462	0.0381587	-1.59433
2	0	0	1	162.257	-1.04276	-1.04322	-40.2859	-0.128984	38	0.56319	0.042027	-1.60641
2	0	0	1	162.924	-1.04943	-1.04888	-44.2228	-0.157271	38	0.56649	0.0463844	-1.61537
2	0	0	1	163.59	-1.0561	-1.05417	-49.0004	-0.188453	38	0.570251	0.0516547	-1.62442
2	0	0	1	164.257	-1.06277	-1.06287	-54.8629	-0.223195	38	0.574095	0.0583118	-1.63696
2	0	0	1	164.924	-1.06943	-1.06946	-61.3293	-0.262066	38	0.578028	0.0655893	-1.64749
2	0	0	1	165.591	-1.0761	-1.07649	-67.8255	-0.305291	38	0.581982	0.0730135	-1.65847
2	0	0	1	166.257	-1.08277	-1.08225	-74.1847	-0.352815	38	0.585116	0.0802864	-1.66737
2	0	0	1	166.924	-1.08943	-1.09023	-78.9585	-0.404123	38	0.587722	0.0860828	-1.67795
2	0	0	1	167.591	-1.0961	-1.09617	-80.4439	-0.457524	38	0.589029	0.08818	-1.6852
2	0	0	1	168.258	-1.10277	-1.1039	-80.0863	-0.511162	38	0.588839	0.0884074	-1.69274
2	0	0	1	168.924	-1.10944	-1.10962	-79.7348	-0.56452	38	0.588656	0.0884756	-1.69828
2	0	0	1	169.591	-1.1161	-1.11714	-80.0776	-0.617819	38	0.588962	0.089458	-1.7061
2	0	0	1	170.258	-1.12277	-1.1239	-81.7557	-0.671824	38	0.589545	0.0918853	-1.71345
2	0	0	1	170.925	-1.12944	-1.12955	-84.8872	-0.727439	38	0.591392	0.095884	-1.72094
2	0	0	1	171.591	-1.13611	-1.13672	-88.9526	-0.785459	38	0.592911	0.101114	-1.72963
2	0	0	1	172.258	-1.14278	-1.14212	-93.7658	-0.846483	38	0.595198	0.107092	-1.73732
2	0	0	1	172.925	-1.14944	-1.14978	-99.4438	-0.911016	38	0.5978	0.114338	-1.74758
2	0	0	1	173.591	-1.15611	-1.15666	-105.62	-0.9795	38	0.600457	0.122166	-1.75711
2	0	0	1	174.258	-1.16278	-1.16319	-111.681	-1.0521	37	0.603067	0.129906	-1.76626
2	0	0	1	174.925	-1.16944	-1.16971	-118.202	-1.12887	37	0.605958	0.138262	-1.77567
2	0	0	1	175.592	-1.17611	-1.17619	-125.175	-1.21016	37	0.609074	0.14723	-1.78526
2	0	0	1	176.258	-1.18278	-1.18375	-132.244	-1.29611	37	0.611821	0.156544	-1.79557
2	0	0	1	176.925	-1.18945	-1.18953	-139.291	-1.38681	37	0.614624	0.16569	-1.80415
2	0	0	1	177.592	-1.19611	-1.1972	-146.444	-1.48221	37	0.617335	0.175322	-1.81453
2	0	0	1	178.259	-1.20278	-1.20282	-153.971	-1.58249	37	0.620296	0.185199	-1.82311
2	0	0	1	178.925	-1.20945	-1.20961	-161.569	-1.6878	37	0.622853	0.195436	-1.83247
2	0	0	1	179.592	-1.21612	-1.21635	-169.222	-1.79823	37	0.625795	0.205833	-1.84214
2	0	0	1	180.259	-1.22278	-1.22364	-176.991	-1.91381	37	0.62841	0.216573	-1.85205
2	0	0	1	180.926	-1.22945	-1.22999	-184.795	-2.03457	37	0.631103	0.227296	-1.8611
2	0	0	1	181.592	-1.23612	-1.23675	-192.745	-2.16056	37	0.633851	0.238376	-1.8706
2	0	0	1	182.259	-1.24279	-1.24398	-200.473	-2.29183	37	0.636526	0.249384	-1.8805
2	0	0	1	182.859	-1.24879	-1.24997	-207.948	-2.41435	37	0.639113	0.259928	-1.88908
2	1	0	1	272.246	-0.948586	-0.944233	33.3999	0.00113632	38	-1.09566	-0.0315373	0.151426
2	1	0	1	272.763	-0.953754	-0.954738	20.0408	0.0140794	38	-1.07064	-0.0191337	0.115907
2	1	0	1	273.429	-0.96042	-0.960506	9.93964	0.0237099	38	-1.03266	-0.00954708	0.0721562
2	1	0	1	274.113	-0.967255	-0.967034	2.70326	0.027748	38	-0.960164	-0.00261414	-0.00686961
2	0	0	1	274.796	-0.974089	-0.974939	-2.80389	0.0275404	39	-0.837705	0.00273362	-0.137234
2	0	0	1	275.463	-0.980756	-0.981429	-7.20098	0.0240495	39	-0.728044	0.00706725	-0.253385
2	0	0	1	276.13	-0.987424	-0.988334	-10.9417	0.0178301	39	-0.599848	0.0108141	-0.388486
2	0	0	1	276.797	-0.994092	-0.993721	-14.789	0.0091376	38	0.144247	0.0146961	-1.13797
2	0	0	1	277.463	-1.00076	-1.00032	-18.4383	-0.00208181	38	0.420621	0.0184442	-1.42094
2	0	0	1	278.13	-1.00743	-1.00824	-22.0737	-0.0157136	38	0.436765	0.0222556	-1.44501
2	0	0	1	278.797	-1.01409	-1.01556	-25.6354	-0.031744	38	0.447888	0.0260344	-1.46345
2	0	0	1	279.463	-1.02076	-1.02189	-28.9307	-0.0500808	38	0.48763	0.0295641	-1.50952
2	0	0	1	280.13	-1.02743	-1.02845	-32.5645	-0.0707038	38	0.546228	0.033491	-1.57468
2	0	0	1	280.797	-1.0341	-1.03431	-35.7867	-0.0936123	38	0.552901	0.0370146	-1.58721
2	0	0	1	281.464	-1.04076	-1.04039	-39.1961	-0.118722	38	0.556984	0.0407791	-1.59737
2	0	0	1	282.13	-1.04743	-1.0482	-43.0359	-0.146231	38	0.560271	0.0451101	-1.60847
2	0	0	1	282.797	-1.0541	-1.05487	-47.6879	-0.176565	38	0.563757	0.0503043	-1.61862
2	0	0	1	283.464	-1.06077	-1.05993	-53.4006	-0.210362	38	0.567978	0.056601	-1.62791
2	0	0	1	284.131	-1.06743	-1.06821	-59.7847	-0.248233	38	0.571779	0.0638625	-1.63999
2	0	0	1	284.797	-1.0741	-1.07517	-66.1386	-0.290377	38	0.575777	0.0711105	-1.65095
2	0	0	1	285.464	-1.08077	-1.08069	-71.7855	-0.336565	38	0.578687	0.0775779	-1.65938
2	0	0	1	286.131	-1.08744	-1.08687	-75.2831	-0.385864	38	0.580785	0.0818232	-1.66766
2	0	0	1	286.798	-1.0941	-1.09484	-75.8568	-0.436416	38	0.581372	0.0830514	-1.67622
2	0	0	1	287.464	-1.10077	-1.10176	-75.2257	-0.486888	38	0.580983	0.0828809	-1.68274
2	0	0	1	288.131	-1.10744	-1.10805	-74.6067	-0.536919	38	0.580874	0.0826679	-1.68892
2	0	0	1	288.798	-1.1141	-1.11496	-75.0804	-0.586834	38	0.58112	0.0837115	-1.69608
2	0	0	1	289.465	-1.12077	-1.12109	-77.3465	-0.637665	38	0.582254	0.0867125	-1.70335
2	0	0	1	290.131	-1.12744	-1.12883	-80.828	-0.690482	38	0.583834	0.0912413	-1.71267
2	0	0	1	290.798	-1.13411	-1.13494	-85.2927	-0.745976	38	0.585927	0.0968017	-1.72086
2	0	0	1	291.465	-1.14078	-1.14139	-90.3385	-0.804642	38	0.588442	0.103112	-1.72984
2	0	0	1	292.132	-1.14744	-1.14847	-96.115	-0.866936	38	0.59096	0.110385	-1.73943
2	0	0	1	292.798	-1.15411	-1.1545	-102.272	-0.933201	38	0.593747	0.118073	-1.74825
2	0	0	1	293.465	-1.16078	-1.16118	-108.602	-1.00365	38	0.596402	0.126106	-1.75758
2	0	0	1	294.132	-1.16744	-1.16743	-115.494	-1.07851	37	0.59947	0.134831	-1.7669
2	0	0	1	294.799	-1.17411	-1.17487	-122.382	-1.15798	37	0.602281	0.143783	-1.77715
2	0	0	1	295.465	-1.18078	-1.18154	-129.601	-1.24212	37	0.605315	0.153129	-1.78685
2	0	0	1	296.132	-1.18745	-1.1883	-136.884	-1.33111	37	0.608317	0.162659	-1.79662
2	0	0	1	296.799	-1.19411	-1.19535	-144.418	-1.42499	37	0.611168	0.17263	-1.80652
2	0	0	1	297.466	-1.20078	-1.20231	-152.097	-1.524	37	0.614149	0.182868	-1.81646
2	0	0	1	298.132	-1.20745	-1.20923	-159.737	-1.62814	37	0.616669	0.193158	-1.8259
2	0	0	1	298.799	-1.21412	-1.21485	-167.224	-1.73723	37	0.619362	0.203151	-1.83421
2	0	0	1	299.466	-1.22078	-1.22191	-175.021	-1.85148	37	0.621825	0.213861	-1.84374
2	0	0	1	300.133	-1.22745	-1.22715	-182.837	-1.9709	37	0.624928	0.224368	-1.85208
2	0	0	1	300.799	-1.23412	-1.23472	-190.673	-2.09555	37	0.6276	0.235428	-1.86233
2	0	0	1	301.466	-1.24079	-1.24158	-199.076	-2.22562	37	0.630231	0.247169	-1.87181
2	0	0	1	302.133	-1.24745	-1.24798	-207.532	-2.36135	37	0.633502	0.258996	-1.88148
2	0	0	1	302.371	-1.24995	-1.24531	-211.107	-2.41104	37	0.635278	0.262894	-1.88059