Folder: Microstructure_-_FaradaicEfficiency_Electrodeposited_Iron_JECS

File: 2h_200mAcm2_cleanNaOH _j100_scanRate_2025-10-28_12_LSV_C01_noheader.txt
mode	ox/red	error	control changes	time/s	control/V	Ewe/V	<I>/mA	(Q-Qo)/C	I Range	P/W
2	0	0	0	670.916	-1.25984	-1.26105	-295.968	-0.0105175	37	0.37323
2	0	0	1	671.099	-1.25801	-1.25884	-265.742	-0.0597096	37	0.334526
2	0	0	1	671.432	-1.25468	-1.25546	-256.476	-0.146502	37	0.321995
2	0	0	1	671.766	-1.25134	-1.25275	-251.034	-0.230985	37	0.314484
2	0	0	1	672.099	-1.24801	-1.24845	-245.331	-0.313587	37	0.306283
2	0	0	1	672.432	-1.24468	-1.24572	-239.784	-0.394314	37	0.298704
2	0	0	1	672.766	-1.24134	-1.24197	-234.485	-0.473261	37	0.291224
2	0	0	1	673.099	-1.23801	-1.23866	-229.178	-0.550432	37	0.283874
2	0	0	1	673.433	-1.23467	-1.23509	-223.851	-0.625834	37	0.276477
2	0	0	1	673.766	-1.23134	-1.23173	-218.743	-0.699495	37	0.269432
2	0	0	1	674.099	-1.22801	-1.22848	-213.587	-0.771452	37	0.262388
2	0	0	1	674.433	-1.22467	-1.22476	-208.385	-0.841656	37	0.255221
2	0	0	1	674.766	-1.22134	-1.22276	-203.235	-0.910157	37	0.248508
2	0	0	1	675.099	-1.21801	-1.21889	-198.294	-0.976964	37	0.241699
2	0	0	1	675.433	-1.21467	-1.2157	-192.993	-1.04207	37	0.234623
2	0	0	1	675.766	-1.21134	-1.21228	-187.96	-1.10546	37	0.227861
2	0	0	1	676.1	-1.208	-1.20736	-182.964	-1.16718	37	0.220903
2	0	0	1	676.433	-1.20467	-1.20567	-177.857	-1.22722	37	0.214437
2	0	0	1	676.766	-1.20134	-1.20243	-172.918	-1.28558	37	0.207921
2	0	0	1	677.1	-1.198	-1.19978	-168.196	-1.34231	37	0.201798
2	0	0	1	677.433	-1.19467	-1.19637	-163.621	-1.3975	37	0.195751
2	0	0	1	677.766	-1.19134	-1.19136	-158.857	-1.45114	37	0.189256
2	0	0	1	678.1	-1.188	-1.18896	-154.074	-1.50319	37	0.183188
2	0	0	1	678.433	-1.18467	-1.18526	-149.445	-1.55368	37	0.177131
2	0	0	1	678.767	-1.18133	-1.18113	-144.057	-1.60251	37	0.170151
2	0	0	1	679.1	-1.178	-1.17863	-139.437	-1.64966	37	0.164345
2	0	0	1	679.433	-1.17467	-1.17557	-134.909	-1.69528	37	0.158594
2	0	0	1	679.767	-1.17133	-1.17166	-130.585	-1.73942	37	0.153001
2	0	0	1	680.1	-1.168	-1.1681	-126.21	-1.78211	37	0.147426
2	0	0	1	680.433	-1.16467	-1.16616	-121.808	-1.82334	37	0.142048
2	0	0	1	680.767	-1.16133	-1.16309	-117.409	-1.86311	37	0.136557
2	0	0	1	681.1	-1.158	-1.15878	-113.118	-1.90143	37	0.131079
2	0	0	1	681.434	-1.15466	-1.1559	-108.959	-1.93835	37	0.125946
2	0	0	1	681.767	-1.15133	-1.15192	-104.779	-1.97387	37	0.120697
2	0	0	1	682.1	-1.148	-1.14869	-100.622	-2.00799	37	0.115583
2	0	0	1	682.434	-1.14466	-1.14496	-96.5276	-2.04073	37	0.11052
2	0	0	1	682.767	-1.14133	-1.14121	-92.4517	-2.07213	37	0.105507
2	0	0	1	683.1	-1.138	-1.13907	-88.4135	-2.10218	37	0.100709
2	0	0	1	683.434	-1.13466	-1.13508	-84.7013	-2.13092	37	0.0961429
2	0	0	1	683.767	-1.13133	-1.12971	-80.869	-2.15842	37	0.0913587
2	0	0	1	684.101	-1.12799	-1.12938	-76.9227	-2.18462	37	0.0868747
2	0	0	1	684.434	-1.12466	-1.12574	-73.0685	-2.20951	37	0.0822563
2	0	0	1	684.767	-1.12133	-1.12193	-69.1855	-2.23311	37	0.0776212
2	0	0	1	685.101	-1.11799	-1.11746	-65.3875	-2.25543	37	0.0730679
2	0	0	1	685.434	-1.11466	-1.11541	-61.6157	-2.27649	37	0.0687267
2	0	0	1	685.767	-1.11133	-1.11057	-57.8926	-2.29631	37	0.0642937
2	0	0	1	686.101	-1.10799	-1.10748	-54.2346	-2.31489	37	0.0600635
2	0	0	1	686.434	-1.10466	-1.10473	-50.5213	-2.33225	37	0.0558123
2	0	0	1	686.768	-1.10132	-1.10219	-46.9177	-2.34838	37	0.0517122
2	0	0	1	687.117	-1.09782	-1.09826	-43.1991	-2.36401	37	0.0474439
2	0	0	1	687.468	-1.09432	-1.0945	-39.4598	-2.3784	38	0.0431886
2	0	0	1	687.801	-1.09099	-1.09029	-35.9575	-2.39086	38	0.0392042
2	0	0	1	688.134	-1.08766	-1.08736	-32.5141	-2.40217	38	0.0353546
2	0	0	1	688.468	-1.08432	-1.08566	-29.0665	-2.41233	38	0.0315562
2	0	0	1	688.801	-1.08099	-1.08115	-25.6883	-2.42134	38	0.0277731
2	0	0	1	689.134	-1.07765	-1.08017	-22.2581	-2.42923	38	0.0240425
2	0	0	1	689.468	-1.07432	-1.07337	-18.8075	-2.43596	38	0.0201874
2	0	0	1	689.801	-1.07099	-1.07014	-15.3829	-2.44155	38	0.0164619
2	0	0	1	690.135	-1.06765	-1.06807	-11.9482	-2.44599	38	0.0127615
2	0	0	1	690.468	-1.06432	-1.06424	-8.6824	-2.44932	38	0.00924018
2	0	0	1	690.801	-1.06099	-1.0604	-5.59117	-2.45159	38	0.00592887
2	0	0	1	691.135	-1.05765	-1.05673	-2.623	-2.45287	39	0.0027718
2	0	0	1	691.468	-1.05432	-1.05659	0.447351	-2.45313	39	-0.000472667
2	1	0	1	691.801	-1.05099	-1.05231	3.66383	-2.45233	39	-0.00385548
2	1	0	1	692.135	-1.04765	-1.04753	7.14113	-2.45042	39	-0.00748056
2	1	0	1	692.468	-1.04432	-1.04384	10.7179	-2.44733	39	-0.0111878
2	1	0	1	692.802	-1.04098	-1.04156	14.6843	-2.44297	38	-0.0152946
2	1	0	1	693.135	-1.03765	-1.03517	19.0447	-2.43722	38	-0.0197145
2	1	0	1	693.468	-1.03432	-1.03374	23.8652	-2.42995	38	-0.0246704
2	1	0	1	693.802	-1.03098	-1.03288	29.4359	-2.42094	38	-0.0304037
2	1	0	1	694.135	-1.02765	-1.02854	35.821	-2.40992	38	-0.0368433
2	1	0	1	694.468	-1.02432	-1.02681	42.1795	-2.39678	38	-0.0433102
2	1	0	1	694.802	-1.02098	-1.02183	45.9428	-2.38197	38	-0.0469457
2	1	0	1	695.135	-1.01765	-1.01817	48.226	-2.36628	38	-0.0491022
2	1	0	1	695.469	-1.01431	-1.01362	55.1241	-2.34888	38	-0.0558748
2	1	0	1	695.802	-1.01098	-1.01156	58.8021	-2.32976	38	-0.059482
2	1	0	1	696.135	-1.00765	-1.00742	60.6791	-2.30974	38	-0.0611291
2	1	0	1	696.469	-1.00431	-1.00456	60.8564	-2.2894	38	-0.0611338
2	1	0	1	696.802	-1.00098	-1.00139	59.7326	-2.26923	38	-0.0598153
2	1	0	1	697.135	-0.997646	-0.996783	58.0075	-2.24953	38	-0.0578209
2	1	0	1	697.469	-0.994312	-0.995072	56.0744	-2.23046	38	-0.0557981
2	1	0	1	697.802	-0.990978	-0.990749	54.2819	-2.212	38	-0.0537797
2	1	0	1	698.136	-0.987643	-0.987257	52.6138	-2.19412	38	-0.0519433
2	1	0	1	698.469	-0.984309	-0.984292	51.2381	-2.17674	38	-0.0504332
2	1	0	1	698.802	-0.980977	-0.982045	50.1939	-2.15977	38	-0.0492926
2	1	0	1	699.136	-0.977642	-0.976524	49.4694	-2.14309	38	-0.0483081
2	1	0	1	699.469	-0.97431	-0.97419	49.0695	-2.12659	38	-0.047803
2	1	0	1	699.802	-0.970976	-0.970451	48.8443	-2.11019	38	-0.047401
2	1	0	1	700.136	-0.967641	-0.968151	49.1277	-2.09378	38	-0.047563
2	1	0	1	700.469	-0.964307	-0.964888	49.6228	-2.07724	38	-0.0478804
2	1	0	1	700.803	-0.960974	-0.962082	50.4239	-2.06048	38	-0.0485119
2	1	0	1	701.136	-0.95764	-0.957707	51.4487	-2.04341	38	-0.0492728
2	1	0	1	701.469	-0.954307	-0.954536	52.5942	-2.02598	38	-0.0502031
2	1	0	1	701.753	-0.951473	-0.951852	53.6309	-2.01088	38	-0.0510487
2	1	0	1	701.883	-0.950139	-0.949003	54.1798	-2.00382	38	-0.0514168

File: 2h_200mAcm2_cleanNaOH _j_100-20mAcm2_2025-10-28_04_LSV_C01_noheader.txt
mode	ox/red	error	control changes	time/s	control/V	Ewe/V	<I>/mA	(Q-Qo)/C	I Range	P/W
2	0	0	0	111.49	-1.25984	-1.26064	-270.762	-0.00151627	37	0.341334
2	0	0	1	111.509	-1.25801	-1.25889	-293.194	-0.00695027	37	0.369099
2	0	0	1	111.542	-1.25467	-1.25435	-271.651	-0.0163477	37	0.340745
2	0	0	1	111.575	-1.25135	-1.25193	-257.925	-0.0251155	37	0.322903
2	0	0	1	111.609	-1.24801	-1.24749	-247.332	-0.0335341	37	0.308543
2	0	0	1	111.642	-1.24467	-1.24539	-238.592	-0.041632	37	0.29714
2	0	0	1	111.675	-1.24135	-1.24363	-230.861	-0.0494088	37	0.287106
2	0	0	1	111.709	-1.23801	-1.23981	-223.711	-0.0569855	37	0.277359
2	0	0	1	111.742	-1.23467	-1.23573	-217.234	-0.0643352	37	0.268442
2	0	0	1	111.775	-1.23135	-1.23122	-211.084	-0.0714317	37	0.25989
2	0	0	1	111.809	-1.22801	-1.22867	-205.34	-0.0783724	37	0.252296
2	0	0	1	111.842	-1.22467	-1.2262	-199.706	-0.0851237	37	0.244879
2	0	0	1	111.875	-1.22135	-1.22247	-194.203	-0.0916493	37	0.237407
2	0	0	1	111.909	-1.21801	-1.21811	-188.605	-0.0980283	37	0.229741
2	0	0	1	111.942	-1.21466	-1.21462	-183.383	-0.104228	37	0.222741
2	0	0	1	111.975	-1.21134	-1.21304	-178.265	-0.110218	37	0.216243
2	0	0	1	112.009	-1.208	-1.20707	-172.994	-0.116071	37	0.208817
2	0	0	1	112.042	-1.20466	-1.20592	-167.93	-0.121752	37	0.202511
2	0	0	1	112.075	-1.20133	-1.20202	-162.899	-0.127263	37	0.195807
2	0	0	1	112.109	-1.19801	-1.19924	-157.86	-0.132575	37	0.189313
2	0	0	1	112.142	-1.19467	-1.19618	-152.721	-0.137749	37	0.182682
2	0	0	1	112.175	-1.19133	-1.19227	-147.754	-0.142754	37	0.176164
2	0	0	1	112.209	-1.18801	-1.18816	-142.862	-0.147566	37	0.169743
2	0	0	1	112.242	-1.18467	-1.18433	-137.861	-0.152241	37	0.163274
2	0	0	1	112.275	-1.18133	-1.18151	-132.996	-0.156751	37	0.157135
2	0	0	1	112.309	-1.17801	-1.17922	-128.155	-0.161073	37	0.151123
2	0	0	1	112.342	-1.17467	-1.17523	-123.361	-0.165261	37	0.144979
2	0	0	1	112.375	-1.17133	-1.17207	-118.494	-0.169287	37	0.138883
2	0	0	1	112.409	-1.16801	-1.16818	-113.775	-0.17313	37	0.132909
2	0	0	1	112.442	-1.16467	-1.16558	-108.9	-0.176835	37	0.126931
2	0	0	1	112.475	-1.16132	-1.16031	-104.101	-0.18038	37	0.120789
2	0	0	1	112.509	-1.158	-1.1571	-99.2598	-0.183743	37	0.114854
2	0	0	1	112.542	-1.15466	-1.15695	-94.5168	-0.186967	37	0.109351
2	0	0	1	112.575	-1.15132	-1.15146	-89.7603	-0.190031	37	0.103355
2	0	0	1	112.609	-1.148	-1.1477	-85.0097	-0.192929	37	0.0975653
2	0	0	1	112.642	-1.14467	-1.14561	-80.3263	-0.195669	37	0.0920227
2	0	0	1	112.675	-1.14133	-1.14188	-75.6971	-0.198262	37	0.0864372
2	0	0	1	112.709	-1.13799	-1.13805	-71.0015	-0.200699	37	0.0808031
2	0	0	1	112.742	-1.13467	-1.13494	-66.31	-0.202966	37	0.0752575
2	0	0	1	112.775	-1.13133	-1.13265	-61.6332	-0.205089	37	0.069809
2	0	0	1	112.809	-1.12799	-1.12899	-56.9417	-0.207056	37	0.0642863
2	0	0	1	112.842	-1.12467	-1.12451	-52.2803	-0.208856	37	0.05879
2	0	0	1	112.875	-1.12133	-1.1209	-47.5764	-0.21051	37	0.0533283
2	0	0	1	112.909	-1.11799	-1.11898	-42.9328	-0.212009	37	0.0480409
2	0	0	1	112.942	-1.11467	-1.11571	-38.2771	-0.213344	37	0.0427062
2	0	0	1	112.99	-1.10982	-1.10976	-31.5399	-0.215009	37	0.0350018
2	0	0	1	113.039	-1.10498	-1.10625	-24.6104	-0.21644	38	0.0272254
2	0	0	1	113.072	-1.10166	-1.10209	-19.9006	-0.217166	38	0.0219322
2	0	0	1	113.105	-1.09832	-1.09838	-15.1604	-0.21774	38	0.0166518
2	0	0	1	113.139	-1.09498	-1.09562	-10.4084	-0.218155	38	0.0114037
2	0	0	1	113.172	-1.09166	-1.09301	-5.68364	-0.218411	38	0.00621228
2	0	0	1	113.205	-1.08833	-1.08967	-0.941162	-0.218509	38	0.00102556
2	1	0	1	113.239	-1.08499	-1.08457	3.85786	-0.218448	38	-0.0041841
2	1	0	1	113.272	-1.08165	-1.08308	8.69715	-0.218226	38	-0.00941975
2	1	0	1	113.305	-1.07833	-1.07901	13.5304	-0.217845	38	-0.0145994
2	1	0	1	113.339	-1.07499	-1.07392	18.4185	-0.217299	38	-0.0197801
2	1	0	1	113.372	-1.07165	-1.07209	23.3781	-0.216589	38	-0.0250635
2	1	0	1	113.405	-1.06833	-1.07017	28.3383	-0.215718	38	-0.0303267
2	1	0	1	113.439	-1.06499	-1.06576	33.3387	-0.214676	38	-0.0355311
2	1	0	1	113.472	-1.06165	-1.06173	38.3142	-0.213467	38	-0.0406792
2	1	0	1	113.505	-1.05833	-1.05867	43.2565	-0.212101	38	-0.0457942
2	1	0	1	113.539	-1.05499	-1.05754	48.187	-0.210561	38	-0.0509595
2	1	0	1	113.572	-1.05164	-1.05273	53.1914	-0.208856	38	-0.0559959
2	1	0	1	113.605	-1.04832	-1.05021	58.2168	-0.206994	38	-0.06114
2	1	0	1	113.639	-1.04498	-1.04488	63.2509	-0.204953	38	-0.0660893
2	1	0	1	113.672	-1.04164	-1.04065	68.6207	-0.202739	38	-0.0714099
2	1	0	1	113.705	-1.03832	-1.03849	74.3059	-0.200346	38	-0.0771658
2	1	0	1	113.739	-1.03499	-1.03735	79.8334	-0.197767	38	-0.0828151
2	1	0	1	113.772	-1.03165	-1.03026	85.2113	-0.194998	38	-0.0877898
2	1	0	1	113.806	-1.02831	-1.02854	90.5755	-0.192049	38	-0.0931604
2	1	0	1	113.839	-1.02499	-1.02524	96.0313	-0.188939	38	-0.098455
2	1	0	1	113.872	-1.02165	-1.021	101.652	-0.185625	38	-0.103787
2	1	0	1	113.921	-1.01681	-1.01535	109.746	-0.180463	38	-0.111431
2	1	0	1	113.969	-1.01199	-1.01303	117.676	-0.175049	37	-0.119209
2	1	0	1	114.002	-1.00865	-1.00921	122.618	-0.171023	37	-0.123747
2	1	0	1	114.036	-1.00531	-1.00605	126.802	-0.166847	37	-0.127569
2	1	0	1	114.069	-1.00199	-1.00095	130.531	-0.162564	37	-0.130656
2	1	0	1	114.102	-0.998645	-0.997025	127.571	-0.158238	37	-0.127191
2	1	0	1	114.136	-0.995305	-0.996897	140.297	-0.15375	37	-0.139862
2	1	0	1	114.169	-0.991984	-0.992765	149.831	-0.148915	37	-0.148747
2	1	0	1	114.202	-0.988644	-0.988143	156.794	-0.14378	37	-0.154934
2	1	0	1	114.236	-0.985304	-0.985303	163.347	-0.13842	37	-0.160947
2	1	0	1	114.269	-0.981976	-0.982368	169.909	-0.132857	37	-0.166913
2	1	0	1	114.302	-0.978649	-0.981135	176.789	-0.127071	37	-0.173454
2	1	0	1	114.336	-0.975309	-0.975786	183.946	-0.121032	37	-0.179492
2	1	0	1	114.369	-0.971969	-0.972467	191.093	-0.114756	37	-0.185832
2	1	0	1	114.402	-0.968648	-0.968711	198.356	-0.108276	37	-0.192149
2	1	0	1	114.436	-0.965308	-0.96633	205.792	-0.101513	37	-0.198863
2	1	0	1	114.469	-0.961967	-0.9627	213.325	-0.0944993	37	-0.205368
2	1	0	1	114.502	-0.958647	-0.959611	220.811	-0.0872785	37	-0.211892
2	1	0	1	114.536	-0.955307	-0.957072	228.385	-0.0797628	37	-0.218581
2	1	0	1	114.569	-0.951966	-0.9541	235.917	-0.0719949	37	-0.225088
2	1	0	1	114.587	-0.950139	-0.943709	239.865	-0.0676815	37	-0.226362

File: 2h_200mAcm2_cleanNaOH _j_100-20mAcm2_2025-10-28_08_LSV_C01_noheader.txt
mode	ox/red	error	control changes	time/s	control/V	Ewe/V	<I>/mA	(Q-Qo)/C	I Range	P/W
2	0	0	0	344.974	-1.25984	-1.26034	-284.288	-0.00159201	37	0.358299
2	0	0	1	344.992	-1.25801	-1.25916	-353.649	-0.00818691	37	0.445302
2	0	0	1	345.026	-1.25467	-1.25523	-309.914	-0.0192057	37	0.389014
2	0	0	1	345.059	-1.25135	-1.25285	-282.369	-0.0289985	37	0.353765
2	0	0	1	345.092	-1.24801	-1.24784	-262.847	-0.0380743	37	0.327991
2	0	0	1	345.126	-1.24467	-1.24447	-247.922	-0.0465806	37	0.308531
2	0	0	1	345.159	-1.24135	-1.24203	-235.896	-0.0545918	37	0.29299
2	0	0	1	345.192	-1.23801	-1.23935	-225.525	-0.0622788	37	0.279504
2	0	0	1	345.226	-1.23467	-1.23494	-216.524	-0.069644	37	0.267396
2	0	0	1	345.259	-1.23135	-1.23211	-208.617	-0.0766849	37	0.257038
2	0	0	1	345.292	-1.22801	-1.22785	-201.383	-0.0835161	37	0.247268
2	0	0	1	345.326	-1.22467	-1.22488	-194.511	-0.0901122	37	0.238253
2	0	0	1	345.359	-1.22135	-1.22139	-188.011	-0.0964478	37	0.229636
2	0	0	1	345.392	-1.21801	-1.2185	-181.861	-0.102611	37	0.221597
2	0	0	1	345.426	-1.21466	-1.21376	-175.983	-0.108574	37	0.213602
2	0	0	1	345.459	-1.21134	-1.21202	-170.285	-0.114309	37	0.206389
2	0	0	1	345.492	-1.208	-1.209	-164.758	-0.11989	37	0.199193
2	0	0	1	345.526	-1.20466	-1.20571	-159.345	-0.125289	37	0.192124
2	0	0	1	345.559	-1.20133	-1.20164	-154.001	-0.130509	37	0.185055
2	0	0	1	345.592	-1.19801	-1.19896	-148.911	-0.135525	37	0.178538
2	0	0	1	345.626	-1.19467	-1.19591	-143.795	-0.1404	37	0.171965
2	0	0	1	345.659	-1.19133	-1.19161	-138.746	-0.145105	37	0.165331
2	0	0	1	345.692	-1.18801	-1.18846	-133.754	-0.149616	37	0.158961
2	0	0	1	345.726	-1.18467	-1.18604	-128.832	-0.153989	37	0.1528
2	0	0	1	345.759	-1.18133	-1.18311	-124.021	-0.158199	37	0.146731
2	0	0	1	345.792	-1.17801	-1.17943	-119.375	-0.162226	37	0.140794
2	0	0	1	345.826	-1.17467	-1.1742	-114.719	-0.166123	37	0.134703
2	0	0	1	345.859	-1.17133	-1.17072	-110.12	-0.169865	37	0.128919
2	0	0	1	345.892	-1.16801	-1.16945	-105.552	-0.173432	37	0.123437
2	0	0	1	345.926	-1.16467	-1.16626	-101.016	-0.176869	37	0.117811
2	0	0	1	345.959	-1.16132	-1.16179	-96.5271	-0.180155	37	0.112144
2	0	0	1	345.992	-1.158	-1.15934	-92.113	-0.183275	37	0.10679
2	0	0	1	346.026	-1.15466	-1.1562	-87.7304	-0.186266	37	0.101434
2	0	0	1	346.059	-1.15132	-1.15183	-83.2353	-0.189108	37	0.0958729
2	0	0	1	346.092	-1.148	-1.1473	-78.9543	-0.191796	37	0.0905842
2	0	0	1	346.126	-1.14467	-1.14457	-74.6418	-0.19434	37	0.0854325
2	0	0	1	346.159	-1.14133	-1.14242	-70.2776	-0.196748	37	0.0802867
2	0	0	1	346.193	-1.13799	-1.13814	-66.0643	-0.199013	37	0.0751901
2	0	0	1	346.226	-1.13467	-1.13706	-61.8647	-0.201124	37	0.0703439
2	0	0	1	346.259	-1.13133	-1.13094	-57.6489	-0.203108	37	0.0651973
2	0	0	1	346.293	-1.12799	-1.12898	-53.3875	-0.204949	37	0.0602736
2	0	0	1	346.326	-1.12467	-1.12404	-49.2156	-0.20664	37	0.0553201
2	0	0	1	346.374	-1.11982	-1.11998	-42.9767	-0.208851	37	0.0481329
2	0	0	1	346.423	-1.11499	-1.11672	-36.8327	-0.210848	38	0.0411319
2	0	0	1	346.456	-1.11167	-1.11292	-32.6232	-0.211989	38	0.0363071
2	0	0	1	346.489	-1.10833	-1.10853	-28.3615	-0.212995	38	0.0314397
2	0	0	1	346.523	-1.10498	-1.10547	-24.0633	-0.213859	38	0.0266014
2	0	0	1	346.556	-1.10166	-1.10204	-19.74	-0.214574	38	0.0217543
2	0	0	1	346.589	-1.09832	-1.09944	-15.4013	-0.215149	38	0.0169328
2	0	0	1	346.623	-1.09498	-1.09573	-11.0071	-0.215577	38	0.0120608
2	0	0	1	346.656	-1.09166	-1.09365	-6.58717	-0.215858	38	0.00720409
2	0	0	1	346.689	-1.08833	-1.08961	-2.17062	-0.215992	38	0.00236512
2	1	0	1	346.723	-1.08499	-1.0853	2.37343	-0.215976	38	-0.00257588
2	1	0	1	346.756	-1.08165	-1.08155	6.96077	-0.215807	38	-0.0075284
2	1	0	1	346.789	-1.07833	-1.07912	11.5872	-0.215487	38	-0.012504
2	1	0	1	346.823	-1.07499	-1.07539	16.3038	-0.215008	38	-0.0175328
2	1	0	1	346.856	-1.07165	-1.07143	21.066	-0.214372	38	-0.0225708
2	1	0	1	346.889	-1.06833	-1.06906	25.8967	-0.21358	38	-0.0276851
2	1	0	1	346.923	-1.06499	-1.06474	30.7889	-0.21262	38	-0.0327822
2	1	0	1	346.956	-1.06165	-1.06222	35.6296	-0.211499	38	-0.0378464
2	1	0	1	346.989	-1.05833	-1.05998	40.5039	-0.210222	38	-0.0429333
2	1	0	1	347.023	-1.05499	-1.05592	45.4127	-0.208775	38	-0.0479523
2	1	0	1	347.056	-1.05164	-1.0531	50.4166	-0.207162	38	-0.0530939
2	1	0	1	347.089	-1.04832	-1.04764	55.4029	-0.205393	38	-0.0580424
2	1	0	1	347.123	-1.04498	-1.04557	60.4078	-0.203446	38	-0.0631608
2	1	0	1	347.156	-1.04164	-1.04214	65.4846	-0.201331	38	-0.0682443
2	1	0	1	347.189	-1.03832	-1.03858	70.622	-0.199052	38	-0.0733464
2	1	0	1	347.223	-1.03499	-1.0369	75.8621	-0.1966	38	-0.0786617
2	1	0	1	347.256	-1.03165	-1.03176	81.2738	-0.193963	38	-0.0838548
2	1	0	1	347.289	-1.02831	-1.02966	86.8742	-0.191142	38	-0.0894511
2	1	0	1	347.323	-1.02499	-1.02383	92.6163	-0.188149	38	-0.0948232
2	1	0	1	347.356	-1.02165	-1.02158	98.5009	-0.184944	38	-0.100627
2	1	0	1	347.389	-1.01831	-1.01837	104.393	-0.181543	38	-0.10631
2	1	0	1	347.438	-1.01349	-1.01437	112.474	-0.176269	38	-0.11409
2	1	0	1	347.486	-1.00865	-1.00969	120.513	-0.170698	37	-0.12168
2	1	0	1	347.519	-1.00531	-1.00518	125.316	-0.166581	37	-0.125964
2	1	0	1	347.553	-1.00199	-1.00351	129.224	-0.162345	37	-0.129678
2	1	0	1	347.586	-0.998645	-0.998626	133.009	-0.157955	37	-0.132826
2	1	0	1	347.619	-0.995305	-0.994719	130.63	-0.15354	37	-0.12994
2	1	0	1	347.653	-0.991984	-0.992877	142.824	-0.148988	37	-0.141806
2	1	0	1	347.686	-0.988644	-0.98825	153.38	-0.144023	37	-0.151578
2	1	0	1	347.719	-0.985304	-0.987432	160.839	-0.138761	37	-0.158817
2	1	0	1	347.753	-0.981976	-0.982103	167.355	-0.133283	37	-0.16436
2	1	0	1	347.786	-0.978649	-0.979378	173.882	-0.127589	37	-0.170296
2	1	0	1	347.819	-0.975309	-0.976074	180.497	-0.121658	37	-0.176178
2	1	0	1	347.853	-0.971969	-0.971181	187.515	-0.115499	37	-0.182111
2	1	0	1	347.886	-0.968648	-0.968589	194.781	-0.109139	37	-0.188663
2	1	0	1	347.919	-0.965308	-0.965254	202.231	-0.102495	37	-0.195204
2	1	0	1	347.953	-0.961967	-0.963032	209.894	-0.0955988	37	-0.202135
2	1	0	1	347.986	-0.958647	-0.958121	217.427	-0.088492	37	-0.208322
2	1	0	1	348.019	-0.955307	-0.955868	225.067	-0.0810887	37	-0.215134
2	1	0	1	348.053	-0.951966	-0.951895	232.594	-0.073432	37	-0.221405
2	1	0	1	348.071	-0.950139	-0.952536	236.442	-0.0691802	37	-0.225219

File: 2h_200mAcm2_cleanNaOH _j_100-20mAcm2_2025-10-28_12_LSV_C01_noheader.txt
mode	ox/red	error	control changes	time/s	control/V	Ewe/V	<I>/mA	(Q-Qo)/C	I Range	P/W
2	0	0	0	579.037	-1.25984	-1.26505	-391.233	-0.0021909	37	0.494927
2	0	0	1	579.055	-1.25801	-1.2603	-564.867	-0.012681	37	0.711899
2	0	0	1	579.089	-1.25467	-1.25585	-518.017	-0.0306987	37	0.65055
2	0	0	1	579.122	-1.25135	-1.25238	-486.41	-0.0473328	37	0.609169
2	0	0	1	579.155	-1.24801	-1.24807	-460.28	-0.0631098	37	0.57446
2	0	0	1	579.189	-1.24467	-1.24516	-437.311	-0.0780709	37	0.544522
2	0	0	1	579.222	-1.24135	-1.24257	-416.569	-0.0922188	37	0.517614
2	0	0	1	579.255	-1.23801	-1.2391	-397.28	-0.105785	37	0.492268
2	0	0	1	579.289	-1.23467	-1.23419	-379.149	-0.118728	37	0.467941
2	0	0	1	579.322	-1.23135	-1.23392	-362.19	-0.131011	37	0.446913
2	0	0	1	579.355	-1.22801	-1.22853	-345.933	-0.142814	37	0.424988
2	0	0	1	579.389	-1.22467	-1.2246	-330.364	-0.154086	37	0.404562
2	0	0	1	579.422	-1.22135	-1.22073	-315.469	-0.164787	37	0.385102
2	0	0	1	579.455	-1.21801	-1.2202	-301.038	-0.175062	37	0.367325
2	0	0	1	579.489	-1.21466	-1.21635	-287.358	-0.184868	37	0.349529
2	0	0	1	579.522	-1.21134	-1.21201	-274.259	-0.194171	37	0.332404
2	0	0	1	579.555	-1.208	-1.20859	-261.71	-0.203103	37	0.316301
2	0	0	1	579.589	-1.20466	-1.20475	-249.703	-0.211625	37	0.30083
2	0	0	1	579.622	-1.20133	-1.20169	-238.258	-0.219756	37	0.286314
2	0	0	1	579.655	-1.19801	-1.1995	-227.331	-0.227467	37	0.272684
2	0	0	1	579.689	-1.19467	-1.19376	-216.886	-0.234868	37	0.258909
2	0	0	1	579.722	-1.19133	-1.19146	-206.888	-0.241928	37	0.246498
2	0	0	1	579.755	-1.18801	-1.18746	-197.317	-0.248622	37	0.234306
2	0	0	1	579.789	-1.18467	-1.18498	-188.176	-0.255044	37	0.222985
2	0	0	1	579.822	-1.18133	-1.18323	-179.432	-0.261169	37	0.212309
2	0	0	1	579.855	-1.17801	-1.17954	-171.15	-0.266973	37	0.201879
2	0	0	1	579.889	-1.17467	-1.17481	-162.973	-0.272537	37	0.191462
2	0	0	1	579.922	-1.17133	-1.17173	-155.163	-0.277836	37	0.18181
2	0	0	1	579.955	-1.16801	-1.16764	-147.653	-0.282848	37	0.172405
2	0	0	1	579.989	-1.16467	-1.16499	-140.399	-0.287644	37	0.163563
2	0	0	1	580.022	-1.16132	-1.16211	-133.336	-0.292202	37	0.154951
2	0	0	1	580.055	-1.158	-1.15888	-126.54	-0.296502	37	0.146645
2	0	0	1	580.089	-1.15466	-1.15603	-119.868	-0.300604	37	0.13857
2	0	0	1	580.122	-1.15132	-1.15294	-113.316	-0.304485	37	0.130647
2	0	0	1	580.155	-1.148	-1.14941	-107.014	-0.308139	37	0.123003
2	0	0	1	580.189	-1.14467	-1.14552	-100.824	-0.311587	37	0.115496
2	0	0	1	580.222	-1.14133	-1.14205	-94.746	-0.31484	37	0.108204
2	0	0	1	580.255	-1.13799	-1.13786	-88.7258	-0.317891	37	0.100957
2	0	0	1	580.289	-1.13467	-1.13612	-82.9242	-0.320727	37	0.0942119
2	0	0	1	580.322	-1.13133	-1.13297	-77.1815	-0.323388	37	0.0874447
2	0	0	1	580.355	-1.12799	-1.12874	-71.5364	-0.325859	37	0.0807459
2	0	0	1	580.389	-1.12467	-1.12523	-65.992	-0.328128	37	0.0742564
2	0	0	1	580.422	-1.12133	-1.12277	-60.3991	-0.330226	37	0.0678143
2	0	0	1	580.455	-1.11799	-1.11799	-54.9247	-0.332139	37	0.0614056
2	0	0	1	580.489	-1.11467	-1.11577	-49.4951	-0.333861	37	0.0552251
2	0	0	1	580.537	-1.10982	-1.11033	-41.6041	-0.336042	37	0.0461943
2	0	0	1	580.585	-1.10498	-1.10596	-33.8931	-0.337953	38	0.0374844
2	0	0	1	580.619	-1.10166	-1.1032	-28.6212	-0.338979	38	0.0315749
2	0	0	1	580.652	-1.09832	-1.09863	-23.346	-0.339834	38	0.0256486
2	0	0	1	580.685	-1.09498	-1.09606	-18.0777	-0.340513	38	0.0198141
2	0	0	1	580.719	-1.09166	-1.09262	-12.847	-0.341015	38	0.014037
2	0	0	1	580.752	-1.08833	-1.08937	-7.68937	-0.341345	38	0.00837656
2	0	0	1	580.785	-1.08499	-1.0857	-2.45566	-0.341502	38	0.0026661
2	1	0	1	580.819	-1.08165	-1.08349	2.75999	-0.341485	38	-0.00299044
2	1	0	1	580.852	-1.07833	-1.07859	7.91434	-0.341295	38	-0.00853629
2	1	0	1	580.885	-1.07499	-1.07474	13.1137	-0.340931	38	-0.0140939
2	1	0	1	580.919	-1.07165	-1.07142	18.3124	-0.340394	38	-0.0196203
2	1	0	1	580.952	-1.06833	-1.069	23.5237	-0.339687	38	-0.0251468
2	1	0	1	580.985	-1.06499	-1.06659	28.7296	-0.338801	38	-0.0306427
2	1	0	1	581.019	-1.06165	-1.0635	33.9133	-0.337742	38	-0.0360666
2	1	0	1	581.052	-1.05833	-1.05775	39.0465	-0.336518	38	-0.0413014
2	1	0	1	581.085	-1.05499	-1.05497	44.2192	-0.335115	38	-0.04665
2	1	0	1	581.119	-1.05164	-1.05338	49.4612	-0.333538	38	-0.0521013
2	1	0	1	581.152	-1.04832	-1.04849	54.7049	-0.331796	38	-0.0573577
2	1	0	1	581.185	-1.04498	-1.04648	59.8655	-0.32987	38	-0.062648
2	1	0	1	581.219	-1.04164	-1.04188	65.134	-0.32777	38	-0.0678616
2	1	0	1	581.252	-1.03832	-1.03909	70.4068	-0.3255	38	-0.0731588
2	1	0	1	581.285	-1.03499	-1.03471	75.7286	-0.323055	38	-0.078357
2	1	0	1	581.319	-1.03165	-1.03253	80.9944	-0.320425	38	-0.0836291
2	1	0	1	581.352	-1.02831	-1.02873	86.4986	-0.317616	38	-0.0889834
2	1	0	1	581.385	-1.02499	-1.02601	92.1751	-0.314636	38	-0.0945723
2	1	0	1	581.419	-1.02165	-1.02051	98.0099	-0.311447	38	-0.10002
2	1	0	1	581.452	-1.01831	-1.01899	103.83	-0.308064	38	-0.105802
2	1	0	1	581.5	-1.01349	-1.01326	112.096	-0.302819	38	-0.113582
2	1	0	1	581.549	-1.00865	-1.01009	119.866	-0.297276	37	-0.121076
2	1	0	1	581.582	-1.00531	-1.00479	124.997	-0.293173	37	-0.125595
2	1	0	1	581.615	-1.00199	-1.00228	129.464	-0.288936	37	-0.129759
2	1	0	1	581.649	-0.998645	-0.999512	133.291	-0.284536	37	-0.133226
2	1	0	1	581.682	-0.995305	-0.995236	132.991	-0.280073	37	-0.132357
2	1	0	1	581.715	-0.991984	-0.992254	138.254	-0.275571	37	-0.137183
2	1	0	1	581.749	-0.988644	-0.989016	151.622	-0.270708	37	-0.149957
2	1	0	1	581.782	-0.985304	-0.984801	161.122	-0.265466	37	-0.158673
2	1	0	1	581.815	-0.981976	-0.983675	168.729	-0.259958	37	-0.165974
2	1	0	1	581.849	-0.978649	-0.977827	175.77	-0.254207	37	-0.171873
2	1	0	1	581.882	-0.975309	-0.976208	182.663	-0.248206	37	-0.178317
2	1	0	1	581.916	-0.971969	-0.970812	189.833	-0.24197	37	-0.184292
2	1	0	1	581.949	-0.968648	-0.967591	197.13	-0.235532	37	-0.190742
2	1	0	1	581.982	-0.965308	-0.965194	204.487	-0.228809	37	-0.19737
2	1	0	1	582.016	-0.961967	-0.961151	211.783	-0.221842	37	-0.203555
2	1	0	1	582.049	-0.958647	-0.958894	218.897	-0.214678	37	-0.209899
2	1	0	1	582.082	-0.955307	-0.955688	225.804	-0.207237	37	-0.215798
2	1	0	1	582.116	-0.951966	-0.953436	232.503	-0.199568	37	-0.221677
2	1	0	1	582.134	-0.950139	-0.944889	236.423	-0.195317	37	-0.223394