Folder: Microstructure_-_FaradaicEfficiency_Electrodeposited_Iron_JECS (part 4)

File: TS-82-25-02-120-100_2024-07-29_hematite_slurry_05_LSV_C01.txt
mode	ox/red	error	control changes	time/s	control/V	Ewe/V	<I>/mA	(Q-Qo)/C	I Range	<Ece>/V	P/W	Ewe-Ece/V
2	0	0	1	7299.24	-1.19291	-1.1932	-200.729	-0.00714344	37	0.644887	0.239509	-1.83808
2	0	0	1	7299.42	-1.19108	-1.1921	-198.227	-0.0435258	37	0.643788	0.236307	-1.83589
2	0	0	1	7299.76	-1.18774	-1.18879	-193.876	-0.108802	37	0.642297	0.230478	-1.83109
2	0	0	1	7300.09	-1.18441	-1.18454	-189.321	-0.172599	37	0.640601	0.224259	-1.82514
2	0	0	1	7300.42	-1.18108	-1.18131	-184.729	-0.234847	37	0.638764	0.218222	-1.82007
2	0	0	1	7300.76	-1.17775	-1.17844	-180.051	-0.295548	37	0.636913	0.212178	-1.81535
2	0	0	1	7301.09	-1.17441	-1.17419	-175.439	-0.354719	37	0.635179	0.205999	-1.80937
2	0	0	1	7301.42	-1.17108	-1.17139	-170.9	-0.412366	37	0.633217	0.200191	-1.80461
2	0	0	1	7301.76	-1.16774	-1.16707	-166.429	-0.468513	37	0.63171	0.194234	-1.79877
2	0	0	1	7302.09	-1.16441	-1.16552	-162.035	-0.523183	37	0.630039	0.188855	-1.79556
2	0	0	1	7302.42	-1.16108	-1.16085	-157.716	-0.576405	37	0.628219	0.183084	-1.78907
2	0	0	1	7302.76	-1.15774	-1.1576	-153.369	-0.628158	37	0.626178	0.177539	-1.78378
2	0	0	1	7303.09	-1.15441	-1.1551	-149.639	-0.678575	37	0.62479	0.172848	-1.77989
2	0	0	1	7303.42	-1.15108	-1.15093	-145.112	-0.727625	37	0.622533	0.167014	-1.77346
2	0	0	1	7303.76	-1.14774	-1.14857	-140.634	-0.775171	37	0.620714	0.161528	-1.76929
2	0	0	1	7304.09	-1.14441	-1.14366	-136.273	-0.821246	37	0.619012	0.15585	-1.76268
2	0	0	1	7304.42	-1.14107	-1.14279	-131.927	-0.865869	37	0.617379	0.150764	-1.76017
2	0	0	1	7304.76	-1.13774	-1.13948	-127.619	-0.909051	37	0.615229	0.145419	-1.75471
2	0	0	1	7305.09	-1.13441	-1.13469	-123.306	-0.950793	37	0.613476	0.139914	-1.74816
2	0	0	1	7305.42	-1.13107	-1.1327	-119.026	-0.991093	37	0.611426	0.134821	-1.74413
2	0	0	1	7305.76	-1.12774	-1.12835	-114.791	-1.02997	37	0.609794	0.129524	-1.73814
2	0	0	1	7306.09	-1.12441	-1.12433	-110.567	-1.06746	37	0.607738	0.124314	-1.73207
2	0	0	1	7306.42	-1.12107	-1.12223	-106.395	-1.10354	37	0.605872	0.1194	-1.7281
2	0	0	1	7306.76	-1.11774	-1.11818	-102.315	-1.13825	37	0.603773	0.114407	-1.72195
2	0	0	1	7307.09	-1.1144	-1.1152	-98.1553	-1.17159	37	0.601929	0.109462	-1.71712
2	0	0	1	7307.42	-1.11107	-1.11097	-94.1684	-1.20356	37	0.599946	0.104618	-1.71091
2	0	0	1	7307.76	-1.10774	-1.10905	-90.2553	-1.23421	37	0.59814	0.100097	-1.70718
2	0	0	1	7308.09	-1.1044	-1.1043	-86.2055	-1.26354	37	0.596113	0.0951967	-1.70041
2	0	0	1	7308.42	-1.10107	-1.10149	-82.235	-1.29153	37	0.593967	0.0905811	-1.69546
2	0	0	1	7308.76	-1.09774	-1.09993	-78.2741	-1.31821	37	0.591604	0.086096	-1.69153
2	0	0	1	7309.09	-1.0944	-1.09377	-74.2657	-1.34355	37	0.589559	0.0812293	-1.68332
2	0	0	1	7309.42	-1.09107	-1.09223	-70.3384	-1.36758	37	0.587161	0.0768256	-1.67939
2	0	0	1	7309.76	-1.08773	-1.08768	-66.4853	-1.39031	37	0.585254	0.0723145	-1.67293
2	0	0	1	7310.09	-1.0844	-1.08453	-62.574	-1.41173	37	0.582561	0.0678633	-1.66709
2	0	0	1	7310.42	-1.08107	-1.08168	-58.7355	-1.43187	37	0.580137	0.0635329	-1.66182
2	0	0	1	7310.76	-1.07773	-1.0778	-55.0258	-1.45075	37	0.577968	0.0593066	-1.65576
2	0	0	1	7311.09	-1.0744	-1.07535	-51.3426	-1.4684	37	0.575465	0.0552113	-1.65082
2	0	0	1	7311.42	-1.07107	-1.07159	-47.7644	-1.48485	37	0.573009	0.0511837	-1.6446
2	0	0	1	7311.77	-1.06756	-1.0683	-44.1488	-1.50084	37	0.570481	0.047164	-1.63878
2	0	0	1	7312.12	-1.06406	-1.06416	-40.7125	-1.51564	38	0.567961	0.0433247	-1.63212
2	0	0	1	7312.46	-1.06073	-1.06138	-37.5054	-1.5286	38	0.565502	0.0398074	-1.62688
2	0	0	1	7312.79	-1.0574	-1.05808	-34.3443	-1.54051	38	0.562944	0.036339	-1.62102
2	0	0	1	7313.12	-1.05406	-1.05431	-31.2417	-1.55137	38	0.56023	0.0329385	-1.61454
2	0	0	1	7313.46	-1.05073	-1.05123	-28.1304	-1.5612	38	0.557287	0.0295717	-1.60852
2	0	0	1	7313.79	-1.0474	-1.04751	-25.0482	-1.56999	38	0.554154	0.0262384	-1.60167
2	0	0	1	7314.12	-1.04406	-1.04404	-22.0617	-1.57777	38	0.550864	0.0230333	-1.59491
2	0	0	1	7314.46	-1.04073	-1.0411	-19.1312	-1.58457	38	0.547383	0.0199176	-1.58849
2	0	0	1	7314.79	-1.0374	-1.03776	-16.3965	-1.59042	38	0.543788	0.0170157	-1.58155
2	0	0	1	7315.12	-1.03406	-1.03411	-13.888	-1.5954	38	0.540131	0.0143617	-1.57424
2	0	0	1	7315.46	-1.03073	-1.03104	-11.6285	-1.59959	38	0.536347	0.0119894	-1.56739
2	0	0	1	7315.79	-1.02739	-1.02727	-9.56978	-1.60306	38	0.53239	0.00983076	-1.55966
2	0	0	1	7316.13	-1.02406	-1.02443	-7.68296	-1.60588	38	0.528176	0.00787066	-1.55261
2	0	0	1	7316.46	-1.02073	-1.02064	-5.86287	-1.60808	38	0.523361	0.00598387	-1.544
2	0	0	1	7316.81	-1.01723	-1.01665	-4.00387	-1.60973	38	0.516996	0.00407056	-1.53365
2	0	0	1	7317.16	-1.01372	-1.01417	-2.18117	-1.61077	39	0.509208	0.00221207	-1.52338
2	0	0	1	7317.49	-1.01039	-1.01176	-0.42705	-1.61115	39	0.498105	0.000432073	-1.50987
2	1	0	1	7317.83	-1.00706	-1.00747	1.34	-1.61094	39	0.482235	-0.00135001	-1.48971
2	1	0	1	7318.16	-1.00372	-1.00426	3.12169	-1.61014	39	0.460718	-0.00313498	-1.46498
2	1	0	1	7318.49	-1.00039	-1.00157	4.94921	-1.60874	39	0.43382	-0.00495696	-1.43539
2	1	0	1	7318.83	-0.997056	-0.998444	6.83258	-1.60672	39	0.403012	-0.00682195	-1.40146
2	1	0	1	7319.16	-0.993723	-0.994021	8.72213	-1.60407	39	0.377412	-0.00866998	-1.37143
2	1	0	1	7319.51	-0.990222	-0.988949	10.6136	-1.60061	39	0.35836	-0.0104963	-1.34731
2	1	0	1	7319.86	-0.986721	-0.9868	12.4044	-1.59654	38	0.34293	-0.0122407	-1.32973
2	1	0	1	7320.19	-0.983388	-0.98193	14.1734	-1.59205	38	0.331131	-0.0139173	-1.31306
2	1	0	1	7320.53	-0.980055	-0.979722	16.0091	-1.58697	38	0.320243	-0.0156845	-1.29997
2	1	0	1	7320.86	-0.976721	-0.978059	17.7687	-1.58128	38	0.307691	-0.0173789	-1.28575
2	1	0	1	7321.19	-0.973387	-0.972495	19.45	-1.57502	38	0.291594	-0.018915	-1.26409
2	1	0	1	7321.53	-0.970053	-0.970685	21.4062	-1.56816	38	0.268944	-0.0207787	-1.23963
2	1	0	1	7321.86	-0.966719	-0.965108	23.451	-1.56062	38	0.234286	-0.0226327	-1.19939
2	1	0	1	7322.19	-0.963385	-0.9627	24.893	-1.5525	38	0.10303	-0.0239645	-1.06573
2	1	0	1	7322.53	-0.960051	-0.960752	25.3794	-1.54407	38	-0.515787	-0.0243833	-0.444965
2	1	0	1	7322.86	-0.956718	-0.953942	26.8426	-1.53533	38	-0.91138	-0.0256063	-0.0425627
2	1	0	1	7323.19	-0.953385	-0.956234	28.3819	-1.52607	38	-1.02552	-0.0271397	0.0692872
2	1	0	1	7323.44	-0.950884	-0.954808	29.5075	-1.51883	38	-1.11571	-0.028174	0.160902
2	1	0	1	7323.51	-0.949884	-0.955244	30.0673	-1.5167	38	-1.1377	-0.0287216	0.18246

File: TS-82-25-02-120-100_2024-07-29_hematite_slurry_06_LSV_C01.txt
mode	ox/red	error	control changes	time/s	control/V	Ewe/V	<I>/mA	(Q-Qo)/C	I Range	<Ece>/V	P/W	Ewe-Ece/V
2	1	0	0	7323.55	-0.95055	-0.950896	28.9277	0.00098074	38	-1.1371	-0.0275073	0.186202
2	1	0	1	7323.73	-0.952385	-0.951994	25.2116	0.00566426	38	-1.12897	-0.0240013	0.176975
2	1	0	1	7324.07	-0.955719	-0.956348	19.4743	0.01302	38	-1.09775	-0.0186242	0.141404
2	1	0	1	7324.4	-0.959052	-0.958635	14.6257	0.0186195	38	-1.05342	-0.0140207	0.0947896
2	1	0	1	7324.73	-0.962386	-0.963367	10.4095	0.0227167	38	-0.991866	-0.0100282	0.0284995
2	1	0	1	7325.07	-0.965719	-0.965193	6.66452	0.0254919	38	-0.90835	-0.00643254	-0.0568427
2	1	0	1	7325.42	-0.96922	-0.968724	3.16973	0.0271196	38	-0.78507	-0.0030706	-0.183654
2	1	0	1	7325.77	-0.972721	-0.974364	-0.0177908	0.0276309	39	-0.555288	1.73347e-05	-0.419076
2	0	0	1	7326.1	-0.976054	-0.976024	-2.80887	0.0270995	39	-0.169011	0.00274153	-0.807013
2	0	0	1	7326.43	-0.979387	-0.979581	-5.36569	0.0256782	39	0.129325	0.00525613	-1.10891
2	0	0	1	7326.77	-0.982721	-0.98222	-7.73225	0.0234381	39	0.31403	0.00759477	-1.29625
2	0	0	1	7327.1	-0.986055	-0.985335	-9.94095	0.0204328	39	0.402472	0.00979517	-1.38781
2	0	0	1	7327.43	-0.989389	-0.989138	-11.8753	0.0167391	38	0.421472	0.0117463	-1.41061
2	0	0	1	7327.77	-0.992723	-0.994071	-13.7901	0.0124087	38	0.42639	0.0137083	-1.42046
2	0	0	1	7328.1	-0.996057	-0.995621	-15.7084	0.00743951	38	0.430204	0.0156396	-1.42583
2	0	0	1	7328.43	-0.999391	-0.999701	-17.6116	0.00183255	38	0.43424	0.0176063	-1.43394
2	0	0	1	7328.77	-1.00272	-1.00292	-19.5175	-0.00440726	38	0.438205	0.0195745	-1.44112
2	0	0	1	7329.1	-1.00606	-1.00667	-21.442	-0.0112851	38	0.444134	0.0215851	-1.45081
2	0	0	1	7329.43	-1.00939	-1.01121	-23.4421	-0.0188209	38	0.45371	0.0237049	-1.46492
2	0	0	1	7329.77	-1.01272	-1.01368	-25.2777	-0.0269974	38	0.480269	0.0256235	-1.49395
2	0	0	1	7330.1	-1.01606	-1.01619	-27.4791	-0.0358429	38	0.53138	0.0279241	-1.54757
2	0	0	1	7330.43	-1.01939	-1.02004	-29.6966	-0.045433	38	0.551252	0.0302916	-1.57129
2	0	0	1	7330.77	-1.02273	-1.02314	-31.6458	-0.0557125	38	0.556251	0.0323781	-1.57939
2	0	0	1	7331.1	-1.02606	-1.02729	-33.5307	-0.0666266	38	0.558977	0.0344457	-1.58627
2	0	0	1	7331.43	-1.02939	-1.02983	-35.3932	-0.078164	38	0.561358	0.0364488	-1.59118
2	0	0	1	7331.77	-1.03273	-1.03386	-37.2018	-0.0903174	38	0.562877	0.0384615	-1.59674
2	0	0	1	7332.1	-1.03606	-1.03692	-38.9846	-0.10307	38	0.564819	0.0404239	-1.60174
2	0	0	1	7332.43	-1.03939	-1.03903	-40.767	-0.116417	38	0.566293	0.0423583	-1.60533
2	0	0	1	7332.77	-1.04273	-1.04404	-42.5398	-0.130356	38	0.567902	0.044413	-1.61194
2	0	0	1	7333.1	-1.04606	-1.04676	-44.3113	-0.144886	38	0.569033	0.0463834	-1.61579
2	0	0	1	7333.43	-1.0494	-1.05065	-46.0878	-0.160007	38	0.570417	0.0484222	-1.62107
2	0	0	1	7333.77	-1.05273	-1.05368	-47.9031	-0.175723	38	0.571774	0.0504748	-1.62546
2	0	0	1	7334.1	-1.05606	-1.05634	-49.773	-0.192053	38	0.572792	0.0525774	-1.62914
2	0	0	1	7334.43	-1.0594	-1.05937	-51.6659	-0.209015	38	0.574216	0.0547331	-1.63358
2	0	0	1	7334.77	-1.06273	-1.06307	-53.6409	-0.226622	38	0.575579	0.057024	-1.63865
2	0	0	1	7335.1	-1.06606	-1.06728	-55.7284	-0.244909	38	0.577013	0.0594776	-1.64429
2	0	0	1	7335.43	-1.0694	-1.06942	-57.9656	-0.263918	38	0.57834	0.0619894	-1.64776
2	0	0	1	7335.77	-1.07273	-1.07334	-60.308	-0.283691	38	0.579648	0.0647309	-1.65299
2	0	0	1	7336.1	-1.07607	-1.07684	-62.749	-0.304255	38	0.581438	0.0675708	-1.65828
2	0	0	1	7336.43	-1.0794	-1.07929	-65.2949	-0.325651	38	0.582843	0.0704722	-1.66213
2	0	0	1	7336.77	-1.08273	-1.08341	-67.9755	-0.347926	38	0.584197	0.0736454	-1.66761
2	0	0	1	7337.1	-1.08607	-1.08707	-70.7809	-0.371116	38	0.586059	0.0769439	-1.67313
2	0	0	1	7337.43	-1.0894	-1.08952	-73.6949	-0.395262	38	0.587865	0.080292	-1.67738
2	0	0	1	7337.77	-1.09273	-1.09264	-76.8319	-0.420417	38	0.589488	0.0839498	-1.68213
2	0	0	1	7338.1	-1.09607	-1.09638	-80.2276	-0.446663	38	0.591123	0.0879601	-1.68751
2	0	0	1	7338.43	-1.0994	-1.0995	-83.879	-0.474078	38	0.593306	0.0922247	-1.6928
2	0	0	1	7338.77	-1.10273	-1.10193	-87.8004	-0.50276	38	0.595313	0.0967501	-1.69725
2	0	0	1	7339.1	-1.10607	-1.10582	-91.8199	-0.532773	38	0.597162	0.101536	-1.70298
2	0	0	1	7339.43	-1.1094	-1.10976	-95.9649	-0.564149	38	0.599362	0.106498	-1.70912
2	0	0	1	7339.77	-1.11274	-1.11287	-100.132	-0.596912	38	0.601213	0.111433	-1.71408
2	0	0	1	7340.1	-1.11607	-1.11629	-104.333	-0.63107	38	0.60347	0.116466	-1.71976
2	0	0	1	7340.43	-1.1194	-1.11955	-108.464	-0.66662	38	0.605441	0.121431	-1.72499
2	0	0	1	7340.77	-1.12274	-1.12358	-112.382	-0.703498	37	0.607296	0.12627	-1.73088
2	0	0	1	7341.1	-1.12607	-1.12658	-116.446	-0.741716	37	0.609115	0.131186	-1.7357
2	0	0	1	7341.43	-1.1294	-1.12864	-120.505	-0.781279	37	0.611145	0.136006	-1.73978
2	0	0	1	7341.77	-1.13274	-1.13337	-124.448	-0.822188	37	0.612682	0.141046	-1.74605
2	0	0	1	7342.1	-1.13607	-1.13587	-128.42	-0.864412	37	0.614601	0.145868	-1.75047
2	0	0	1	7342.43	-1.13941	-1.1396	-132.428	-0.907968	37	0.616425	0.150914	-1.75602
2	0	0	1	7342.77	-1.14274	-1.14492	-136.511	-0.952872	37	0.618236	0.156295	-1.76316
2	0	0	1	7343.1	-1.14607	-1.14618	-140.428	-0.999109	37	0.619468	0.160956	-1.76565
2	0	0	1	7343.43	-1.14941	-1.14993	-144.279	-1.04662	37	0.621143	0.16591	-1.77107
2	0	0	1	7343.77	-1.15274	-1.15358	-148.185	-1.09544	37	0.623025	0.170943	-1.7766
2	0	0	1	7344.1	-1.15607	-1.15652	-152.032	-1.14555	37	0.624558	0.175828	-1.78108
2	0	0	1	7344.43	-1.15941	-1.15925	-155.724	-1.19693	37	0.626256	0.180523	-1.78551
2	0	0	1	7344.77	-1.16274	-1.16216	-159.496	-1.24954	37	0.627717	0.185361	-1.78988
2	0	0	1	7345.1	-1.16608	-1.16615	-163.389	-1.30344	37	0.629572	0.190537	-1.79572
2	0	0	1	7345.43	-1.16941	-1.17131	-167.123	-1.35861	37	0.631031	0.195753	-1.80234
2	0	0	1	7345.77	-1.17274	-1.17296	-170.978	-1.41502	37	0.632567	0.20055	-1.80553
2	0	0	1	7346.1	-1.17608	-1.17632	-174.672	-1.47271	37	0.634099	0.20547	-1.81042
2	0	0	1	7346.43	-1.17941	-1.17828	-178.492	-1.53163	37	0.635899	0.210313	-1.81417
2	0	0	1	7346.77	-1.18274	-1.18444	-182.497	-1.59188	37	0.637304	0.216157	-1.82175
2	0	0	1	7347.1	-1.18608	-1.18577	-186.527	-1.65347	37	0.638629	0.221178	-1.8244
2	0	0	1	7347.43	-1.18941	-1.18944	-190.509	-1.71639	37	0.639922	0.226598	-1.82936
2	0	0	1	7347.77	-1.19275	-1.19275	-194.455	-1.78064	37	0.641908	0.231936	-1.83466
2	0	0	1	7348.1	-1.19608	-1.19773	-198.456	-1.84621	37	0.643513	0.237697	-1.84124
2	0	0	1	7348.37	-1.19875	-1.20097	-201.555	-1.89949	37	0.64455	0.242061	-1.84552
2	0	0	0	7348.48	-1.19991	-1.20466	-202.835	-1.92147	37	0.643672	0.244348	-1.84833

File: TS-82-25-02-240-100_2024-07-25_clean_NaOH_04_LSV_C01.txt
mode	ox/red	error	control changes	time/s	control/V	Ewe/V	<I>/mA	(Q-Qo)/C	I Range	<Ece>/V	P/W	Ewe-Ece/V
2	0	0	0	123.468	-1.21629	-1.21856	-197.985	-0.00704623	37	0.637424	0.241257	-1.85599
2	0	0	1	123.985	-1.21112	-1.21205	-191.551	-0.107438	37	0.635504	0.232169	-1.84755
2	0	0	1	124.652	-1.20445	-1.20522	-183.088	-0.232095	37	0.632753	0.22066	-1.83797
2	0	0	1	125.318	-1.19779	-1.19782	-174.822	-0.351188	37	0.629501	0.209404	-1.82732
2	0	0	1	125.985	-1.19112	-1.19046	-166.728	-0.464878	37	0.626989	0.198483	-1.81745
2	0	0	1	126.652	-1.18445	-1.18493	-158.628	-0.57313	37	0.624204	0.187964	-1.80914
2	0	0	1	127.319	-1.17778	-1.17743	-150.697	-0.67601	37	0.620915	0.177436	-1.79835
2	0	0	1	127.985	-1.17112	-1.17095	-142.729	-0.773623	37	0.617747	0.167129	-1.7887
2	0	0	1	128.652	-1.16445	-1.16534	-134.911	-0.865951	37	0.614659	0.157217	-1.78
2	0	0	1	129.319	-1.15778	-1.15939	-127.31	-0.95315	37	0.611643	0.147602	-1.77104
2	0	0	1	129.986	-1.15111	-1.15078	-119.569	-1.03524	37	0.608653	0.137598	-1.75943
2	0	0	1	130.652	-1.14445	-1.14368	-112.073	-1.11227	37	0.605417	0.128175	-1.7491
2	0	0	1	131.319	-1.13778	-1.13902	-104.742	-1.18435	37	0.602125	0.119303	-1.74115
2	0	0	1	131.986	-1.13111	-1.1306	-97.4583	-1.2515	37	0.598756	0.110186	-1.72935
2	0	0	1	132.653	-1.12444	-1.12604	-90.3144	-1.31388	37	0.595572	0.101698	-1.72161
2	0	0	1	133.319	-1.11778	-1.11819	-83.2903	-1.37156	37	0.591997	0.0931344	-1.71019
2	0	0	1	133.986	-1.11111	-1.11169	-76.2766	-1.42456	37	0.588452	0.0847961	-1.70014
2	0	0	1	134.653	-1.10444	-1.10507	-69.5193	-1.47295	37	0.584995	0.0768233	-1.69006
2	0	0	1	135.32	-1.09777	-1.09819	-62.9881	-1.51693	37	0.58121	0.0691728	-1.6794
2	0	0	1	135.986	-1.09111	-1.09186	-56.4287	-1.55653	37	0.577219	0.0616125	-1.66908
2	0	0	1	136.653	-1.08444	-1.08362	-50.0996	-1.59184	37	0.573377	0.0542892	-1.657
2	0	0	1	137.336	-1.07761	-1.07871	-43.7633	-1.62368	37	0.569023	0.047208	-1.64773
2	0	0	1	138.02	-1.07077	-1.07078	-37.5816	-1.6513	38	0.564194	0.0402415	-1.63497
2	0	0	1	138.687	-1.0641	-1.06524	-31.5468	-1.67414	38	0.55901	0.033605	-1.62425
2	0	0	1	139.353	-1.05744	-1.05824	-25.6571	-1.69303	38	0.554427	0.0271515	-1.61267
2	0	0	1	140.02	-1.05077	-1.05302	-19.7427	-1.70798	38	0.548375	0.0207895	-1.6014
2	0	0	1	140.687	-1.0441	-1.0445	-13.7382	-1.71895	38	0.540329	0.0143496	-1.58483
2	0	0	1	141.354	-1.03743	-1.03733	-7.51985	-1.72586	38	0.529326	0.00780055	-1.56665
2	0	0	1	142.054	-1.03043	-1.03071	-0.795091	-1.72858	39	0.507868	0.000819509	-1.53858
2	1	0	1	142.72	-1.02377	-1.02381	5.56497	-1.72679	39	0.458517	-0.00569745	-1.48232
2	1	0	1	143.421	-1.01676	-1.01638	11.8359	-1.72045	38	0.383066	-0.0120298	-1.39945
2	1	0	1	144.087	-1.0101	-1.01027	16.8134	-1.71069	38	0.335148	-0.0169861	-1.34542
2	1	0	1	144.754	-1.00343	-1.00342	19.8067	-1.69821	38	0.30157	-0.0198746	-1.30499
2	1	0	1	145.421	-0.996763	-0.996791	22.8058	-1.6839	38	0.251541	-0.0227326	-1.24833
2	1	0	1	146.088	-0.990095	-0.989773	25.1106	-1.66757	38	-0.293083	-0.0248538	-0.69669
2	1	0	1	146.754	-0.983429	-0.983876	27.9004	-1.64978	38	-1.00711	-0.0274506	0.0232365
2	1	0	1	147.421	-0.976761	-0.977315	30.9202	-1.63	38	-1.12705	-0.0302188	0.149737
2	1	0	1	148.088	-0.970092	-0.970116	33.7664	-1.60826	38	-1.14203	-0.0327573	0.171917
2	1	0	1	148.754	-0.963426	-0.964764	36.1953	-1.58479	38	-1.14332	-0.0349199	0.178554
2	1	0	1	149.421	-0.956759	-0.956588	38.3635	-1.55979	38	-1.14406	-0.036698	0.187472
2	1	0	1	150.005	-0.950924	-0.949816	40.0407	-1.53683	38	-1.14533	-0.0380313	0.195517
2	0	0	0	244.208	-1.21895	-1.2192	-202.828	-0.00722321	37	0.62801	0.247288	-1.84721
2	0	0	1	244.725	-1.21379	-1.21443	-195.071	-0.109555	37	0.625379	0.2369	-1.83981
2	0	0	1	245.392	-1.20712	-1.20711	-186.519	-0.236569	37	0.622856	0.225149	-1.82997
2	0	0	1	246.058	-1.20045	-1.20064	-177.99	-0.357911	37	0.619993	0.213702	-1.82064
2	0	0	1	246.725	-1.19379	-1.19255	-169.616	-0.47368	37	0.617	0.202275	-1.80955
2	0	0	1	247.392	-1.18712	-1.18752	-161.455	-0.583873	37	0.614057	0.191732	-1.80158
2	0	0	1	248.059	-1.18045	-1.18078	-153.135	-0.688577	37	0.611002	0.180818	-1.79178
2	0	0	1	248.725	-1.17378	-1.17413	-144.996	-0.78783	37	0.60827	0.170244	-1.7824
2	0	0	1	249.392	-1.16712	-1.16737	-136.989	-0.881695	37	0.605013	0.159916	-1.77238
2	0	0	1	250.059	-1.16045	-1.16105	-129.171	-0.970275	37	0.602078	0.149974	-1.76313
2	0	0	1	250.726	-1.15378	-1.15468	-121.321	-1.05363	37	0.599328	0.140087	-1.75401
2	0	0	1	251.392	-1.14711	-1.14659	-113.621	-1.13182	37	0.595951	0.130277	-1.74254
2	0	0	1	252.059	-1.14045	-1.14102	-105.996	-1.2049	37	0.592705	0.120944	-1.73373
2	0	0	1	252.726	-1.13378	-1.13341	-98.506	-1.27287	37	0.589459	0.111647	-1.72287
2	0	0	1	253.393	-1.12711	-1.1288	-91.215	-1.33597	37	0.585979	0.102963	-1.71477
2	0	0	1	254.059	-1.12044	-1.12128	-83.8523	-1.39418	37	0.582726	0.0940219	-1.70401
2	0	0	1	254.726	-1.11378	-1.11439	-76.7772	-1.44758	37	0.579066	0.0855595	-1.69345
2	0	0	1	255.393	-1.10711	-1.10734	-69.8848	-1.49634	37	0.575972	0.0773859	-1.68331
2	0	0	1	256.06	-1.10044	-1.10104	-63.048	-1.54051	37	0.571718	0.0694183	-1.67276
2	0	0	1	256.726	-1.09377	-1.09666	-56.3962	-1.58017	37	0.568037	0.0618477	-1.6647
2	0	0	1	257.393	-1.08711	-1.08749	-49.8346	-1.61542	37	0.564513	0.0541948	-1.65201
2	0	0	1	258.076	-1.08027	-1.08167	-43.4163	-1.64709	37	0.560194	0.0469621	-1.64186
2	0	0	1	258.76	-1.07344	-1.07528	-37.1884	-1.67451	38	0.555945	0.0399881	-1.63123
2	0	0	1	259.427	-1.06677	-1.06662	-31.1079	-1.69714	38	0.551456	0.0331804	-1.61808
2	0	0	1	260.093	-1.0601	-1.06093	-25.238	-1.71578	38	0.546014	0.0267757	-1.60694
2	0	0	1	260.76	-1.05344	-1.05348	-19.4317	-1.73052	38	0.540223	0.0204709	-1.5937
2	0	0	1	261.427	-1.04677	-1.0479	-13.5641	-1.74138	38	0.53284	0.0142138	-1.58074
2	0	0	1	262.094	-1.0401	-1.04093	-7.74848	-1.74834	38	0.523229	0.0080656	-1.56416
2	0	0	1	262.794	-1.0331	-1.03279	-1.38232	-1.75142	39	0.504878	0.00142765	-1.53767
2	1	0	1	263.46	-1.02643	-1.0275	4.99843	-1.75008	39	0.463161	-0.0051359	-1.49067
2	1	0	1	264.144	-1.0196	-1.01936	11.5066	-1.74424	39	0.391292	-0.0117294	-1.41065
2	1	0	1	264.827	-1.01276	-1.01266	17.3633	-1.73422	38	0.332873	-0.0175832	-1.34554
2	1	0	1	265.494	-1.0061	-1.00495	21.3957	-1.72105	38	0.294417	-0.0215017	-1.29937
2	1	0	1	266.161	-0.99943	-1.00051	23.8605	-1.70586	38	0.257164	-0.0238726	-1.25767
2	1	0	1	266.828	-0.992762	-0.993189	26.0154	-1.68901	38	-0.145155	-0.0258382	-0.848034
2	1	0	1	267.494	-0.986096	-0.986146	28.1042	-1.67094	38	-0.991002	-0.0277148	0.00485629
2	1	0	1	268.161	-0.979427	-0.979429	30.9753	-1.65114	38	-1.07387	-0.0303381	0.0944379
2	1	0	1	268.828	-0.972759	-0.972751	33.6351	-1.62949	38	-1.08626	-0.0327185	0.113513
2	1	0	1	269.494	-0.966092	-0.966408	35.7171	-1.60628	38	-1.09367	-0.0345173	0.127262
2	1	0	1	270.161	-0.959426	-0.959855	37.697	-1.58167	38	-1.10077	-0.0361837	0.140914
2	1	0	1	270.828	-0.952757	-0.95293	39.5475	-1.55582	38	-1.10611	-0.037686	0.153181
2	1	0	1	271.087	-0.949924	-0.951841	40.5382	-1.54547	38	-1.10738	-0.0385859	0.155542